Participant,level,trial_index,trial_indexer,trial_num,first,second,random,adjust,envelope_1,envelope_2,sound1,sound2,offset,n_reversal,c_reversal,c_stop,l_reversal,t_step_size_up,t_step_size_down,stim_order,resp,block,key_resp_7.keys,key_resp_7.corr,key_resp_7.rt,key_resp_7.duration,general_break.started,general_break.stopped,key_resp_gb.keys,blocks_break.started,blocks_break.stopped,key_resp_bb.keys,trials.thisRepN,trials.thisTrialN,trials.thisN,trials.thisIndex,trials.ran,correctans,amp1,amp2,amp3,direction,repetition,type,Time,start_id,Gender,age
1,10,5,1,1,-20,-10,10,0,revperc,revperc,wav/revperc_masker_70.wav,wav/target_80.wav,0.38,0,0,0,0,16,16,SC,1,1,2,1,1.8133,NA,732.8317,732.8338,NA,732.834,732.835,,0,0,1,1,1,2,0,1,0,Above,1,Homogeneous,28.11004,1,Female,18
1,10,1,2,1,-20,-10,4,0,flat,flat,wav/flat_masker_64.wav,wav/target_74.wav,0.38,0,0,0,0,16,16,SC,1,1,2,1,1.1937,NA,739.0478,739.0488,NA,739.0492,739.0496,,0,1,2,1,1,2,0,1,0,Above,1,Homogeneous,28.11004,1,Female,18
1,10,2,3,1,-20,-10,10,0,flat,flat,wav/flat_masker_70.wav,wav/target_80.wav,0.405,0,0,0,0,16,16,SC,1,1,2,1,0.9948,NA,745.0651,745.0663,NA,745.0668,745.0674,,0,2,3,1,1,2,0,1,0,Above,1,Homogeneous,28.11004,1,Female,18
1,10,5,1,2,-20,-10,7,0,revperc,revperc,wav/revperc_masker_67.wav,wav/target_77.wav,0.38,0,0,0,0,16,16,SC,1,1,2,1,3.1676,NA,753.2655,753.2667,NA,753.267,753.2675,,1,0,4,1,1,2,0,1,0,Above,1,Homogeneous,28.11004,1,Female,18
1,10,1,2,2,-20,-10,4,0,flat,flat,wav/flat_masker_64.wav,wav/target_74.wav,0.38,0,0,0,0,16,16,SC,1,1,3,1,1.2783,NA,759.5653,759.5662,NA,759.5665,759.5668,,1,1,5,2,1,3,0,0,1,Above,1,Homogeneous,28.11004,1,Female,18
1,10,2,3,2,-20,-10,-10,0,flat,flat,wav/flat_masker_50.wav,wav/target_60.wav,0.405,0,0,0,0,16,16,SC,1,1,2,1,0.4848,NA,765.0815,765.0826,NA,765.0831,765.0836,,1,2,6,1,1,2,0,1,0,Above,1,Homogeneous,28.11004,1,Female,18
1,-6,5,1,3,-20,-26,2,0,revperc,revperc,wav/revperc_masker_62.wav,wav/target_56.wav,0.38,0,0,0,0,16,16,SC,1,1,3,1,0.6168,NA,770.7322,770.7331,NA,770.7336,770.7341,,2,0,7,2,1,3,0,0,1,Above,1,Homogeneous,28.11004,1,Female,18
1,-6,1,2,3,-20,-26,-6,0,flat,flat,wav/flat_masker_54.wav,wav/target_48.wav,0.38,0,0,0,0,16,16,SC,1,1,1,1,1.3423,NA,777.0977,777.0986,NA,777.099,777.0994,,2,1,8,0,1,1,1,0,0,Above,1,Homogeneous,28.11004,1,Female,18
1,-6,2,3,3,-20,-26,7,0,flat,flat,wav/flat_masker_67.wav,wav/target_61.wav,0.405,0,0,0,0,16,16,SC,1,1,1,1,0.5683,NA,782.6989,782.7002,NA,782.7007,782.7012,,2,2,9,0,1,1,1,0,0,Above,1,Homogeneous,28.11004,1,Female,18
1,-6,5,1,4,-20,-26,5,0,revperc,revperc,wav/revperc_masker_65.wav,wav/target_59.wav,0.38,0,0,0,0,16,16,SC,1,1,2,1,0.5774,NA,788.2985,788.2995,NA,788.2998,788.3004,,3,0,10,1,1,2,0,1,0,Above,1,Homogeneous,28.11004,1,Female,18
1,-6,1,2,4,-20,-26,-7,0,flat,flat,wav/flat_masker_53.wav,wav/target_47.wav,0.38,0,0,0,0,16,16,SC,1,1,3,1,0.632,NA,793.9654,793.9665,NA,793.9668,793.9673,,3,1,11,2,1,3,0,0,1,Above,1,Homogeneous,28.11004,1,Female,18
1,-6,2,3,4,-20,-26,1,0,flat,flat,wav/flat_masker_61.wav,wav/target_55.wav,0.405,0,0,0,0,16,16,SC,1,1,1,1,0.5389,NA,799.5307,799.5317,NA,799.5321,799.5325,,3,2,12,0,1,1,1,0,0,Above,1,Homogeneous,28.11004,1,Female,18
1,-22,5,1,5,-20,-42,-2,0,revperc,revperc,wav/revperc_masker_58.wav,wav/target_36.wav,0.38,1,1,0,1,8,8,SC,0,1,2,0,1.7268,NA,806.2822,806.2834,NA,806.2837,806.2842,,4,0,13,0,1,1,1,0,0,Above,1,Homogeneous,28.11004,1,Female,18
1,-22,1,2,5,-20,-42,7,0,flat,flat,wav/flat_masker_67.wav,wav/target_45.wav,0.38,1,1,0,1,8,8,SC,0,1,2,0,1.4284,NA,812.7312,812.7316,NA,812.7318,812.732,,4,1,14,0,1,1,1,0,0,Above,1,Homogeneous,28.11004,1,Female,18
1,-22,2,3,5,-20,-42,0,0,flat,flat,wav/flat_masker_60.wav,wav/target_38.wav,0.405,0,0,0,0,16,16,SC,1,1,1,1,0.4439,NA,818.1981,818.1989,NA,818.1992,818.1997,,4,2,15,0,1,1,1,0,0,Above,1,Homogeneous,28.11004,1,Female,18
1,-6,5,1,6,-20,-26,-2,0,revperc,revperc,wav/revperc_masker_58.wav,wav/target_52.wav,0.38,1,1,0,0,8,8,SC,1,1,3,1,0.4994,NA,823.731,823.7318,NA,823.7322,823.7325,,5,0,16,2,1,3,0,0,1,Above,1,Homogeneous,28.11004,1,Female,18
1,-6,1,2,6,-20,-26,10,0,flat,flat,wav/flat_masker_70.wav,wav/target_64.wav,0.38,1,0,0,0,8,8,SC,0,1,3,0,0.8029,NA,829.5656,829.5666,NA,829.5669,829.5673,,5,1,17,1,1,2,0,1,0,Above,1,Homogeneous,28.11004,1,Female,18
1,-22,2,3,6,-20,-42,3,0,flat,flat,wav/flat_masker_63.wav,wav/target_41.wav,0.405,0,0,0,0,16,16,SC,1,1,3,1,0.4776,NA,835.0649,835.0658,NA,835.066,835.0664,,5,2,18,2,1,3,0,0,1,Above,1,Homogeneous,28.11004,1,Female,18
1,-6,5,1,7,-20,-26,-8,0,revperc,revperc,wav/revperc_masker_52.wav,wav/target_46.wav,0.38,1,0,0,0,8,8,SC,0,1,2,0,0.5187,NA,840.6154,840.6166,NA,840.6169,840.6173,,6,0,19,2,1,3,0,0,1,Above,1,Homogeneous,28.11004,1,Female,18
1,2,1,2,7,-20,-18,-6,0,flat,flat,wav/flat_masker_54.wav,wav/target_56.wav,0.38,1,0,0,0,8,8,SC,1,1,3,1,0.3843,NA,846.0321,846.0332,NA,846.0335,846.0339,,6,1,20,2,1,3,0,0,1,Above,1,Homogeneous,28.11004,1,Female,18
1,-38,2,3,7,-20,-58,-7,0,flat,flat,wav/flat_masker_53.wav,wav/target_15.wav,0.405,1,1,0,1,8,8,SC,0,1,3,0,1.0506,NA,852.1155,852.1164,NA,852.1167,852.117,,6,2,21,0,1,1,1,0,0,Above,1,Homogeneous,28.11004,1,Female,18
1,-22,2,1,8,-20,-42,-8,0,flat,flat,wav/flat_masker_52.wav,wav/target_30.wav,0.405,1,0,0,0,8,8,SC,0,1,2,0,0.7848,NA,857.9313,857.9323,NA,857.9328,857.9333,,7,0,22,0,1,1,1,0,0,Above,1,Homogeneous,28.11004,1,Female,18
1,2,5,2,8,-20,-18,7,0,revperc,revperc,wav/revperc_masker_67.wav,wav/target_69.wav,0.38,1,0,0,0,8,8,SC,1,1,1,1,0.58,NA,863.5319,863.5325,NA,863.5328,863.5331,,7,1,23,0,1,1,1,0,0,Above,1,Homogeneous,28.11004,1,Female,18
1,2,1,3,8,-20,-18,9,0,flat,flat,wav/flat_masker_69.wav,wav/target_71.wav,0.38,2,1,0,1,4,4,SC,1,1,1,1,0.3711,NA,868.9313,868.9324,NA,868.9327,868.933,,7,2,24,0,1,1,1,0,0,Above,1,Homogeneous,28.11004,1,Female,18
1,-14,2,1,9,-20,-34,-6,0,flat,flat,wav/flat_masker_54.wav,wav/target_40.wav,0.405,1,0,0,0,8,8,SC,1,1,2,1,0.5002,NA,874.4645,874.4654,NA,874.4658,874.4661,,8,0,25,1,1,2,0,1,0,Above,1,Homogeneous,28.11004,1,Female,18
1,2,5,2,9,-20,-18,-2,0,revperc,revperc,wav/revperc_masker_58.wav,wav/target_60.wav,0.38,2,1,0,1,4,4,SC,1,1,1,1,0.4947,NA,879.982,879.9829,NA,879.9832,879.9835,,8,1,26,0,1,1,1,0,0,Above,1,Homogeneous,28.11004,1,Female,18
1,-6,1,3,9,-20,-26,10,0,flat,flat,wav/flat_masker_70.wav,wav/target_64.wav,0.38,2,1,0,0,4,4,SC,1,1,2,1,0.3941,NA,885.3979,885.3987,NA,885.399,885.3994,,8,2,27,1,1,2,0,1,0,Above,1,Homogeneous,28.11004,1,Female,18
1,-6,5,1,10,-20,-26,8,0,revperc,revperc,wav/revperc_masker_68.wav,wav/target_62.wav,0.38,2,1,0,0,4,4,SC,1,1,2,1,2.3524,NA,892.7809,892.7817,NA,892.7822,892.7827,,9,0,28,1,1,2,0,1,0,Above,1,Homogeneous,28.11004,1,Female,18
1,-6,1,2,10,-20,-26,-6,0,flat,flat,wav/flat_masker_54.wav,wav/target_48.wav,0.38,3,2,0,1,2,2,SC,0,1,3,0,1.111,NA,898.9145,898.9152,NA,898.9154,898.9157,,9,1,29,1,1,2,0,1,0,Above,1,Homogeneous,28.11004,1,Female,18
1,-14,2,3,10,-20,-34,2,0,flat,flat,wav/flat_masker_62.wav,wav/target_48.wav,0.405,2,1,0,1,4,4,SC,1,1,1,1,0.4053,NA,904.349,904.3498,NA,904.3501,904.3506,,9,2,30,0,1,1,1,0,0,Above,1,Homogeneous,28.11004,1,Female,18
1,-6,5,1,11,-20,-26,4,0,revperc,revperc,wav/revperc_masker_64.wav,wav/target_58.wav,0.38,3,2,0,1,2,2,SC,0,1,2,0,0.9714,NA,910.3483,910.3492,NA,910.3495,910.3499,,10,0,31,2,1,3,0,0,1,Above,1,Homogeneous,28.11004,1,Female,18
1,-2,1,2,11,-20,-22,4,0,flat,flat,wav/flat_masker_64.wav,wav/target_62.wav,0.38,3,2,0,0,2,2,SC,1,1,1,1,0.4672,NA,915.8481,915.8491,NA,915.8493,915.8496,,10,1,32,0,1,1,1,0,0,Above,1,Homogeneous,28.11004,1,Female,18
1,-22,2,3,11,-20,-42,3,0,flat,flat,wav/flat_masker_63.wav,wav/target_41.wav,0.405,2,1,0,0,4,4,SC,1,1,2,1,0.3352,NA,921.216,921.2168,NA,921.2171,921.2175,,10,2,33,1,1,2,0,1,0,Above,1,Homogeneous,28.11004,1,Female,18
1,-2,5,1,12,-20,-22,-3,0,revperc,revperc,wav/revperc_masker_57.wav,wav/target_55.wav,0.38,3,2,0,0,2,2,SC,1,1,3,1,0.4665,NA,926.715,926.7159,NA,926.7162,926.7166,,11,0,34,2,1,3,0,0,1,Above,1,Homogeneous,28.11004,1,Female,18
1,-2,1,2,12,-20,-22,3,0,flat,flat,wav/flat_masker_63.wav,wav/target_61.wav,0.38,4,3,1,1,2,2,SC,1,1,2,1,0.3341,NA,932.0815,932.0825,NA,932.0828,932.0832,,11,1,35,1,1,2,0,1,0,Above,1,Homogeneous,28.11004,1,Female,18
1,-22,2,3,12,-20,-42,0,0,flat,flat,wav/flat_masker_60.wav,wav/target_38.wav,0.405,2,0,0,0,4,4,SC,1,1,3,1,0.2296,NA,937.3327,937.3335,NA,937.3338,937.3341,,11,2,36,2,1,3,0,0,1,Above,1,Homogeneous,28.11004,1,Female,18
1,-4,1,1,13,-20,-24,5,0,flat,flat,wav/flat_masker_65.wav,wav/target_61.wav,0.38,4,3,1,0,2,2,SC,1,1,1,1,0.3671,NA,942.7329,942.7339,NA,942.7342,942.7345,,12,0,37,0,1,1,1,0,0,Above,1,Homogeneous,28.11004,1,Female,18
1,-26,2,2,13,-20,-46,10,0,flat,flat,wav/flat_masker_70.wav,wav/target_44.wav,0.405,2,0,0,0,4,4,SC,1,1,2,1,0.311,NA,948.0657,948.0667,NA,948.067,948.0674,,12,1,38,1,1,2,0,1,0,Above,1,Homogeneous,28.11004,1,Female,18
1,-2,5,3,13,-20,-22,-4,0,revperc,revperc,wav/revperc_masker_56.wav,wav/target_54.wav,0.38,4,3,1,1,2,2,SC,1,1,2,1,0.4167,NA,953.5164,953.5173,NA,953.5176,953.518,,12,2,39,1,1,2,0,1,0,Above,1,Homogeneous,28.11004,1,Female,18
1,-4,1,1,14,-20,-24,-9,0,flat,flat,wav/flat_masker_51.wav,wav/target_47.wav,0.38,4,0,0,0,2,2,SC,1,1,2,1,0.3277,NA,958.8646,958.8652,NA,958.8656,958.8659,,13,0,40,1,1,2,0,1,0,Above,1,Homogeneous,28.11004,1,Female,18
1,-26,2,2,14,-20,-46,-8,0,flat,flat,wav/flat_masker_52.wav,wav/target_26.wav,0.405,2,0,0,0,4,4,SC,1,1,1,1,0.9436,NA,964.8329,964.8341,NA,964.8344,964.8348,,13,1,41,0,1,1,1,0,0,Above,1,Homogeneous,28.11004,1,Female,18
1,-4,5,3,14,-20,-24,8,0,revperc,revperc,wav/revperc_masker_68.wav,wav/target_64.wav,0.38,4,3,1,0,2,2,SC,1,1,3,1,0.1943,NA,970.0494,970.0502,NA,970.0505,970.0508,,13,2,42,2,1,3,0,0,1,Above,1,Homogeneous,28.11004,1,Female,18
1,-6,1,1,15,-20,-26,-2,0,flat,flat,wav/flat_masker_58.wav,wav/target_52.wav,0.38,4,0,0,0,2,2,SC,1,1,2,1,0.3283,NA,975.3983,975.3989,NA,975.3992,975.3996,,14,0,43,1,1,2,0,1,0,Above,1,Homogeneous,28.11004,1,Female,18
1,-30,2,2,15,-20,-50,-9,0,flat,flat,wav/flat_masker_51.wav,wav/target_21.wav,0.405,3,1,0,1,2,2,SC,0,1,3,0,1.3133,NA,981.7325,981.7334,NA,981.7337,981.7342,,14,1,44,0,1,1,1,0,0,Above,1,Homogeneous,28.11004,1,Female,18
1,-4,5,3,15,-20,-24,-3,0,revperc,revperc,wav/revperc_masker_57.wav,wav/target_53.wav,0.38,4,0,0,0,2,2,SC,1,1,2,1,0.5669,NA,987.3328,987.3337,NA,987.334,987.3344,,14,2,45,1,1,2,0,1,0,Above,1,Homogeneous,28.11004,1,Female,18
1,-26,2,1,16,-20,-46,-6,0,flat,flat,wav/flat_masker_54.wav,wav/target_28.wav,0.405,3,0,0,0,2,2,SC,0,1,2,0,0.8774,NA,993.2326,993.2335,NA,993.2338,993.2341,,15,0,46,2,1,3,0,0,1,Above,1,Homogeneous,28.11004,1,Female,18
1,-6,5,2,16,-20,-26,6,0,revperc,revperc,wav/revperc_masker_66.wav,wav/target_60.wav,0.38,4,0,0,0,2,2,SC,1,1,1,1,0.3836,NA,998.6489,998.6498,NA,998.6501,998.6505,,15,1,47,0,1,1,1,0,0,Above,1,Homogeneous,28.11004,1,Female,18
1,-6,1,3,16,-20,-26,3,0,flat,flat,wav/flat_masker_63.wav,wav/target_57.wav,0.38,4,0,0,0,2,2,SC,1,1,3,1,0.4551,NA,1004.1326,1004.1334,NA,1004.1337,1004.1341,,15,2,48,2,1,3,0,0,1,Above,1,Homogeneous,28.11004,1,Female,18
1,-6,5,1,17,-20,-26,7,0,revperc,revperc,wav/revperc_masker_67.wav,wav/target_61.wav,0.38,5,1,1,1,2,2,SC,0,1,2,0,1.1514,NA,1010.3162,1010.3171,NA,1010.3174,1010.3179,,16,0,49,2,1,3,0,0,1,Above,1,Homogeneous,28.11004,1,Female,18
1,-8,1,2,17,-20,-28,-6,0,flat,flat,wav/flat_masker_54.wav,wav/target_46.wav,0.38,4,0,0,0,2,2,SC,1,1,2,1,0.4194,NA,1015.7665,1015.7678,NA,1015.7683,1015.769,,16,1,50,1,1,2,0,1,0,Above,1,Homogeneous,28.11004,1,Female,18
1,-24,2,3,17,-20,-44,8,0,flat,flat,wav/flat_masker_68.wav,wav/target_44.wav,0.405,3,0,0,0,2,2,SC,1,1,3,1,0.3469,NA,1021.1333,1021.1342,NA,1021.1344,1021.1348,,16,2,51,2,1,3,0,0,1,Above,1,Homogeneous,28.11004,1,Female,18
1,-4,5,1,18,-20,-24,6,0,revperc,revperc,wav/revperc_masker_66.wav,wav/target_62.wav,0.38,5,1,1,0,2,2,SC,1,1,1,1,0.3003,NA,1026.4653,1026.4662,NA,1026.4666,1026.4669,,17,0,52,0,1,1,1,0,0,Above,1,Homogeneous,28.11004,1,Female,18
1,-8,1,2,18,-20,-28,1,0,flat,flat,wav/flat_masker_61.wav,wav/target_53.wav,0.38,4,0,0,0,2,2,SC,1,1,2,1,0.8221,NA,1032.3163,1032.3172,NA,1032.3176,1032.3181,,17,1,53,1,1,2,0,1,0,Above,1,Homogeneous,28.11004,1,Female,18
1,-24,2,3,18,-20,-44,9,0,flat,flat,wav/flat_masker_69.wav,wav/target_45.wav,0.405,4,1,1,1,2,2,SC,1,1,1,1,1.3838,NA,1038.7328,1038.7337,NA,1038.734,1038.7344,,17,2,54,0,1,1,1,0,0,Above,1,Homogeneous,28.11004,1,Female,18
1,-4,5,1,19,-20,-24,-8,0,revperc,revperc,wav/revperc_masker_52.wav,wav/target_48.wav,0.38,6,2,2,1,2,2,SC,1,1,3,1,0.5273,NA,1044.2829,1044.2837,NA,1044.2839,1044.2844,,18,0,55,2,1,3,0,0,1,Above,1,Homogeneous,28.11004,1,Female,18
1,-10,1,2,19,-20,-30,-2,0,flat,flat,wav/flat_masker_58.wav,wav/target_48.wav,0.38,4,0,0,0,2,2,SC,1,1,3,1,0.3182,NA,1049.6326,1049.6335,NA,1049.6338,1049.6341,,18,1,56,2,1,3,0,0,1,Above,1,Homogeneous,28.11004,1,Female,18
1,-26,2,3,19,-20,-46,5,0,flat,flat,wav/flat_masker_65.wav,wav/target_39.wav,0.405,4,1,1,0,2,2,SC,1,1,2,1,0.9029,NA,1055.5665,1055.5675,NA,1055.5678,1055.5683,,18,2,57,1,1,2,0,1,0,Above,1,Homogeneous,28.11004,1,Female,18
1,-6,5,1,20,-20,-26,-9,0,revperc,revperc,wav/revperc_masker_51.wav,wav/target_45.wav,0.38,6,2,2,0,2,2,SC,1,1,3,1,0.3552,NA,1060.9489,1060.9498,NA,1060.9501,1060.9505,,19,0,58,2,1,3,0,0,1,Above,1,Homogeneous,28.11004,1,Female,18
1,-10,1,2,20,-20,-30,2,0,flat,flat,wav/flat_masker_62.wav,wav/target_52.wav,0.38,5,1,1,1,2,2,SC,0,1,3,0,2.1116,NA,1068.083,1068.0838,NA,1068.0841,1068.0845,,19,1,59,0,1,1,1,0,0,Above,1,Homogeneous,28.11004,1,Female,18
1,-26,2,3,20,-20,-46,10,0,flat,flat,wav/flat_masker_70.wav,wav/target_44.wav,0.405,4,0,0,0,2,2,SC,1,1,2,1,0.3177,NA,1073.4335,1073.4347,NA,1073.4351,1073.4354,,19,2,60,1,1,2,0,1,0,Above,1,Homogeneous,28.11004,1,Female,18
1,-28,2,1,21,-20,-48,10,0,flat,flat,wav/flat_masker_70.wav,wav/target_42.wav,0.405,4,0,0,0,2,2,SC,1,1,1,1,0.6126,NA,1079.0664,1079.0673,NA,1079.0677,1079.0682,,20,0,61,0,1,1,1,0,0,Above,1,Homogeneous,28.11004,1,Female,18
1,-6,5,2,21,-20,-26,4,0,revperc,revperc,wav/revperc_masker_64.wav,wav/target_58.wav,0.38,7,3,3,1,2,2,SC,0,1,1,0,0.3945,NA,1084.4832,1084.4841,NA,1084.4845,1084.4848,,20,1,62,2,1,3,0,0,1,Above,1,Homogeneous,28.11004,1,Female,18
1,-8,1,3,21,-20,-28,-1,0,flat,flat,wav/flat_masker_59.wav,wav/target_51.wav,0.38,5,0,0,0,2,2,SC,0,1,2,0,0.5837,NA,1090.1,1090.1009,NA,1090.1012,1090.1016,,20,2,63,2,1,3,0,0,1,Above,1,Homogeneous,28.11004,1,Female,18
1,-28,2,1,22,-20,-48,-6,0,flat,flat,wav/flat_masker_54.wav,wav/target_26.wav,0.405,5,1,1,1,2,2,SC,0,1,2,0,0.3838,NA,1095.5167,1095.5176,NA,1095.518,1095.5185,,21,0,64,2,1,3,0,0,1,Above,1,Homogeneous,28.11004,1,Female,18
1,-4,5,2,22,-20,-24,-6,0,revperc,revperc,wav/revperc_masker_54.wav,wav/target_50.wav,0.38,7,3,3,0,2,2,SC,1,1,1,1,0.1595,NA,1100.6988,1100.6995,NA,1100.6998,1100.7001,,21,1,65,0,1,1,1,0,0,Above,1,Homogeneous,28.11004,1,Female,18
1,-6,1,3,22,-20,-26,2,0,flat,flat,wav/flat_masker_62.wav,wav/target_56.wav,0.38,5,0,0,0,2,2,SC,1,1,1,1,0.3279,NA,1106.05,1106.0509,NA,1106.0512,1106.0516,,21,2,66,0,1,1,1,0,0,Above,1,Homogeneous,28.11004,1,Female,18
1,-26,2,1,23,-20,-46,-6,0,flat,flat,wav/flat_masker_54.wav,wav/target_28.wav,0.405,5,1,1,0,2,2,SC,1,1,1,1,0.3032,NA,1111.3837,1111.3847,NA,1111.3849,1111.3854,,22,0,67,0,1,1,1,0,0,Above,1,Homogeneous,28.11004,1,Female,18
1,-4,5,2,23,-20,-24,-1,0,revperc,revperc,wav/revperc_masker_59.wav,wav/target_55.wav,0.38,8,4,4,1,2,2,SC,1,1,3,1,0.7462,NA,1117.1501,1117.1509,NA,1117.1512,1117.1519,,22,1,68,2,1,3,0,0,1,Above,1,Homogeneous,28.11004,1,Female,18
1,-26,2,1,24,-20,-46,4,0,flat,flat,wav/flat_masker_64.wav,wav/target_38.wav,0.405,6,2,2,1,2,2,SC,1,1,2,1,0.3442,NA,1122.5167,1122.5178,NA,1122.5183,1122.5189,,22,2,69,1,1,2,0,1,0,Above,1,Homogeneous,28.11004,1,Female,18
1,-6,1,2,23,-20,-26,-7,0,flat,flat,wav/flat_masker_53.wav,wav/target_47.wav,0.38,6,1,1,1,2,2,SC,1,1,3,1,0.3768,NA,1127.9155,1127.916,NA,1127.9163,1127.9166,,23,0,70,2,1,3,0,0,1,Above,1,Homogeneous,28.11004,1,Female,18
1,-28,2,1,25,-20,-48,-5,0,flat,flat,wav/flat_masker_55.wav,wav/target_27.wav,0.405,6,2,2,0,2,2,SC,1,1,1,1,0.2447,NA,1133.1833,1133.1842,NA,1133.1845,1133.1849,,23,1,71,0,1,1,1,0,0,Above,1,Homogeneous,28.11004,1,Female,18
1,-8,1,2,24,-20,-28,6,0,flat,flat,wav/flat_masker_66.wav,wav/target_58.wav,0.38,6,1,1,0,2,2,SC,1,1,1,1,0.8668,NA,1139.0835,1139.0844,NA,1139.0847,1139.0851,,23,2,72,0,1,1,1,0,0,Above,1,Homogeneous,28.11004,1,Female,18
1,-28,2,1,26,-20,-48,10,0,flat,flat,wav/flat_masker_70.wav,wav/target_42.wav,0.405,6,0,0,0,2,2,SC,1,1,1,1,0.4529,NA,1144.5665,1144.5674,NA,1144.5678,1144.5682,,24,0,73,0,1,1,1,0,0,Above,1,Homogeneous,28.11004,1,Female,18
1,-8,1,2,25,-20,-28,8,0,flat,flat,wav/flat_masker_68.wav,wav/target_60.wav,0.38,7,2,2,1,2,2,SC,0,1,2,0,0.4938,NA,1150.0823,1150.083,NA,1150.0834,1150.0838,,24,1,74,0,1,1,1,0,0,Above,1,Homogeneous,28.11004,1,Female,18
1,-30,2,1,27,-20,-50,10,0,flat,flat,wav/flat_masker_70.wav,wav/target_40.wav,0.405,7,1,1,1,2,2,SC,0,1,2,0,1.1282,NA,1156.2328,1156.234,NA,1156.2344,1156.2347,,24,2,75,0,1,1,1,0,0,Above,1,Homogeneous,28.11004,1,Female,18
1,-6,1,2,26,-20,-26,4,0,flat,flat,wav/flat_masker_64.wav,wav/target_58.wav,0.38,7,2,2,0,2,2,SC,1,1,2,1,0.4329,NA,1161.6999,1161.7007,NA,1161.7009,1161.7013,,25,0,76,1,1,2,0,1,0,Above,1,Homogeneous,28.11004,1,Female,18
1,-28,2,1,28,-20,-48,-5,0,flat,flat,wav/flat_masker_55.wav,wav/target_27.wav,0.405,7,1,1,0,2,2,SC,1,1,2,1,0.4948,NA,1167.217,1167.2179,NA,1167.2182,1167.2186,,25,1,77,1,1,2,0,1,0,Above,1,Homogeneous,28.11004,1,Female,18
1,-6,1,2,27,-20,-26,2,0,flat,flat,wav/flat_masker_62.wav,wav/target_56.wav,0.38,8,3,3,1,2,2,SC,1,1,3,1,0.4897,NA,1172.7331,1172.7341,NA,1172.7346,1172.735,,25,2,78,2,1,3,0,0,1,Above,1,Homogeneous,28.11004,1,Female,18
1,-28,2,1,29,-20,-48,-9,0,flat,flat,wav/flat_masker_51.wav,wav/target_23.wav,0.405,7,0,0,0,2,2,SC,0,1,3,0,1.0675,NA,1178.8339,1178.8348,NA,1178.8351,1178.8355,,26,0,79,1,1,2,0,1,0,Above,1,Homogeneous,28.11004,1,Female,18
1,-26,2,1,30,-20,-46,-1,0,flat,flat,wav/flat_masker_59.wav,wav/target_33.wav,0.405,7,0,0,0,2,2,SC,1,1,3,1,0.3775,NA,1184.2326,1184.2332,NA,1184.2335,1184.234,,26,1,80,2,1,3,0,0,1,Above,1,Homogeneous,28.11004,1,Female,18
1,-26,2,1,31,-20,-46,-6,0,flat,flat,wav/flat_masker_54.wav,wav/target_28.wav,0.405,7,0,0,0,2,2,SC,0,1,3,0,0.7192,NA,1189.9837,1189.9844,NA,1189.9847,1189.985,,26,2,81,0,1,1,1,0,0,Above,1,Homogeneous,28.11004,1,Female,18
1,-24,2,1,32,-20,-44,-9,0,flat,flat,wav/flat_masker_51.wav,wav/target_27.wav,0.405,7,0,0,0,2,2,SC,0,1,2,0,1.322,NA,1196.3342,1196.3353,NA,1196.3357,1196.336,,27,0,82,2,1,3,0,0,1,Above,1,Homogeneous,28.11004,1,Female,18
1,-22,2,1,33,-20,-42,-9,0,flat,flat,wav/flat_masker_51.wav,wav/target_29.wav,0.405,7,0,0,0,2,2,SC,1,1,3,1,0.478,NA,1201.8339,1201.8348,NA,1201.835,1201.8355,,27,1,83,2,1,3,0,0,1,Above,1,Homogeneous,28.11004,1,Female,18
1,-22,2,1,34,-20,-42,-2,0,flat,flat,wav/flat_masker_58.wav,wav/target_36.wav,0.405,8,1,1,1,2,2,SC,1,1,3,1,0.3611,NA,1207.2171,1207.2179,NA,1207.2185,1214.1328,space,27,2,84,2,1,3,0,0,1,Above,1,Homogeneous,28.11004,1,Female,18
1,10,3,1,1,-20,-10,-7,0,perc,perc,wav/perc_masker_53.wav,wav/target_63.wav,0.38,0,0,0,0,16,16,SC,1,2,3,1,0.7711,NA,1219.9343,1219.9355,NA,1219.9358,1219.9363,,28,0,85,2,1,3,0,0,1,Above,1,Homogeneous,28.11004,1,Female,18
1,10,4,2,1,-20,-10,-8,0,perc,perc,wav/perc_masker_52.wav,wav/target_62.wav,0.405,0,0,0,0,16,16,SC,1,2,2,1,0.3882,NA,1225.3509,1225.3518,NA,1225.3521,1225.3526,,28,1,86,1,1,2,0,1,0,Above,1,Homogeneous,28.11004,1,Female,18
1,10,6,3,1,-20,-10,-2,0,revperc,revperc,wav/revperc_masker_58.wav,wav/target_68.wav,0.405,0,0,0,0,16,16,SC,1,2,1,1,0.3858,NA,1230.7669,1230.7676,NA,1230.7679,1230.7683,,28,2,87,0,1,1,1,0,0,Above,1,Homogeneous,28.11004,1,Female,18
1,10,4,1,2,-20,-10,-4,0,perc,perc,wav/perc_masker_56.wav,wav/target_66.wav,0.405,0,0,0,0,16,16,SC,1,2,3,1,0.4507,NA,1236.2509,1236.2518,NA,1236.2521,1236.2524,,29,0,88,2,1,3,0,0,1,Above,1,Homogeneous,28.11004,1,Female,18
1,10,6,2,2,-20,-10,10,0,revperc,revperc,wav/revperc_masker_70.wav,wav/target_80.wav,0.405,0,0,0,0,16,16,SC,1,2,3,1,0.3777,NA,1241.6506,1241.6515,NA,1241.6518,1241.6522,,29,1,89,2,1,3,0,0,1,Above,1,Homogeneous,28.11004,1,Female,18
1,10,3,3,2,-20,-10,-6,0,perc,perc,wav/perc_masker_54.wav,wav/target_64.wav,0.38,0,0,0,0,16,16,SC,1,2,2,1,0.3608,NA,1247.0337,1247.0343,NA,1247.0347,1247.0353,,29,2,90,1,1,2,0,1,0,Above,1,Homogeneous,28.11004,1,Female,18
1,-6,4,1,3,-20,-26,-3,0,perc,perc,wav/perc_masker_57.wav,wav/target_51.wav,0.405,0,0,0,0,16,16,SC,1,2,1,1,0.3041,NA,1252.3677,1252.369,NA,1252.3692,1252.3697,,30,0,91,0,1,1,1,0,0,Above,1,Homogeneous,28.11004,1,Female,18
1,-6,6,2,3,-20,-26,1,0,revperc,revperc,wav/revperc_masker_61.wav,wav/target_55.wav,0.405,0,0,0,0,16,16,SC,1,2,2,1,0.3621,NA,1257.7509,1257.7517,NA,1257.752,1257.7523,,30,1,92,1,1,2,0,1,0,Above,1,Homogeneous,28.11004,1,Female,18
1,-6,3,3,3,-20,-26,-4,0,perc,perc,wav/perc_masker_56.wav,wav/target_50.wav,0.38,0,0,0,0,16,16,SC,1,2,3,1,0.5264,NA,1263.2998,1263.3002,NA,1263.3005,1263.3008,,30,2,93,2,1,3,0,0,1,Above,1,Homogeneous,28.11004,1,Female,18
1,-6,4,1,4,-20,-26,-5,0,perc,perc,wav/perc_masker_55.wav,wav/target_49.wav,0.405,0,0,0,0,16,16,SC,1,2,2,1,0.3497,NA,1268.6845,1268.6854,NA,1268.6856,1268.686,,31,0,94,1,1,2,0,1,0,Above,1,Homogeneous,28.11004,1,Female,18
1,-6,6,2,4,-20,-26,-9,0,revperc,revperc,wav/revperc_masker_51.wav,wav/target_45.wav,0.405,0,0,0,0,16,16,SC,1,2,2,1,0.3947,NA,1274.1,1274.1008,NA,1274.1012,1274.1017,,31,1,95,1,1,2,0,1,0,Above,1,Homogeneous,28.11004,1,Female,18
1,-6,3,3,4,-20,-26,0,0,perc,perc,wav/perc_masker_60.wav,wav/target_54.wav,0.38,0,0,0,0,16,16,SC,1,2,1,1,0.1618,NA,1279.2836,1279.2845,NA,1279.285,1279.2854,,31,2,96,0,1,1,1,0,0,Above,1,Homogeneous,28.11004,1,Female,18
1,-22,6,1,5,-20,-42,-4,0,revperc,revperc,wav/revperc_masker_56.wav,wav/target_34.wav,0.405,0,0,0,0,16,16,SC,1,2,2,1,0.2955,NA,1284.6008,1284.6016,NA,1284.6019,1284.6022,,32,0,97,1,1,2,0,1,0,Above,1,Homogeneous,28.11004,1,Female,18
1,-22,3,2,5,-20,-42,9,0,perc,perc,wav/perc_masker_69.wav,wav/target_47.wav,0.38,0,0,0,0,16,16,SC,1,2,1,1,0.3001,NA,1289.934,1289.935,NA,1289.9352,1289.9357,,32,1,98,0,1,1,1,0,0,Above,1,Homogeneous,28.11004,1,Female,18
1,-22,4,3,5,-20,-42,-8,0,perc,perc,wav/perc_masker_52.wav,wav/target_30.wav,0.405,0,0,0,0,16,16,SC,1,2,1,1,0.3005,NA,1295.2679,1295.2688,NA,1295.2692,1295.2696,,32,2,99,0,1,1,1,0,0,Above,1,Homogeneous,28.11004,1,Female,18
1,-22,3,1,6,-20,-42,1,0,perc,perc,wav/perc_masker_61.wav,wav/target_39.wav,0.38,0,0,0,0,16,16,SC,1,2,2,1,0.9341,NA,1301.2345,1301.2354,NA,1301.2357,1301.2362,,33,0,100,1,1,2,0,1,0,Above,1,Homogeneous,28.11004,1,Female,18
1,-22,4,2,6,-20,-42,-9,0,perc,perc,wav/perc_masker_51.wav,wav/target_29.wav,0.405,0,0,0,0,16,16,SC,1,2,2,1,0.3511,NA,1306.6179,1306.619,NA,1306.6193,1306.6196,,33,1,101,1,1,2,0,1,0,Above,1,Homogeneous,28.11004,1,Female,18
1,-22,6,3,6,-20,-42,-7,0,revperc,revperc,wav/revperc_masker_53.wav,wav/target_31.wav,0.405,0,0,0,0,16,16,SC,1,2,3,1,0.4965,NA,1312.1344,1312.135,NA,1312.1354,1312.1357,,33,2,102,2,1,3,0,0,1,Above,1,Homogeneous,28.11004,1,Female,18
1,-38,3,1,7,-20,-58,-9,0,perc,perc,wav/perc_masker_51.wav,wav/target_13.wav,0.38,0,0,0,0,16,16,SC,1,2,3,1,0.619,NA,1317.7848,1317.7858,NA,1317.7862,1317.7866,,34,0,103,2,1,3,0,0,1,Above,1,Homogeneous,28.11004,1,Female,18
1,-38,4,2,7,-20,-58,5,0,perc,perc,wav/perc_masker_65.wav,wav/target_27.wav,0.405,0,0,0,0,16,16,SC,1,2,1,1,0.385,NA,1323.2014,1323.2026,NA,1323.2029,1323.2033,,34,1,104,0,1,1,1,0,0,Above,1,Homogeneous,28.11004,1,Female,18
1,-38,6,3,7,-20,-58,7,0,revperc,revperc,wav/revperc_masker_67.wav,wav/target_29.wav,0.405,1,1,0,1,8,8,SC,0,2,1,0,0.1843,NA,1328.418,1328.4189,NA,1328.4193,1328.4197,,34,2,105,1,1,2,0,1,0,Above,1,Homogeneous,28.11004,1,Female,18
1,-38,4,1,8,-20,-58,-7,0,perc,perc,wav/perc_masker_53.wav,wav/target_15.wav,0.405,0,0,0,0,16,16,SC,1,2,2,1,0.4833,NA,1333.9346,1333.9355,NA,1333.9358,1333.9362,,35,0,106,1,1,2,0,1,0,Above,1,Homogeneous,28.11004,1,Female,18
1,-22,6,2,8,-20,-42,4,0,revperc,revperc,wav/revperc_masker_64.wav,wav/target_42.wav,0.405,1,1,0,0,8,8,SC,1,2,1,1,0.3719,NA,1339.3345,1339.3353,NA,1339.3356,1339.3359,,35,1,107,0,1,1,1,0,0,Above,1,Homogeneous,28.11004,1,Female,18
1,-38,3,3,8,-20,-58,2,0,perc,perc,wav/perc_masker_62.wav,wav/target_24.wav,0.38,0,0,0,0,16,16,SC,1,2,1,1,0.3351,NA,1344.7014,1344.7023,NA,1344.7026,1344.703,,35,2,108,0,1,1,1,0,0,Above,1,Homogeneous,28.11004,1,Female,18
1,-54,4,1,9,-20,-74,-5,0,perc,perc,wav/perc_masker_55.wav,wav/target_1.wav,0.405,0,0,0,0,16,16,SC,1,2,3,1,1.7848,NA,1351.5173,1351.518,NA,1351.5183,1351.5186,,36,0,109,2,1,3,0,0,1,Above,1,Homogeneous,28.11004,1,Female,18
1,-22,6,2,9,-20,-42,-4,0,revperc,revperc,wav/revperc_masker_56.wav,wav/target_34.wav,0.405,1,0,0,0,8,8,SC,0,2,2,0,0.4363,NA,1356.9851,1356.9861,NA,1356.9864,1356.9868,,36,1,110,0,1,1,1,0,0,Above,1,Homogeneous,28.11004,1,Female,18
1,-54,3,3,9,-20,-74,5,0,perc,perc,wav/perc_masker_65.wav,wav/target_11.wav,0.38,0,0,0,0,16,16,SC,1,2,3,1,0.5781,NA,1362.5846,1362.5856,NA,1362.5859,1362.5863,,36,2,111,2,1,3,0,0,1,Above,1,Homogeneous,28.11004,1,Female,18
1,-54,4,1,10,-20,-74,-5,0,perc,perc,wav/perc_masker_55.wav,wav/target_1.wav,0.405,1,1,0,1,8,8,SC,0,2,2,0,0.867,NA,1368.485,1368.4859,NA,1368.4863,1368.4867,,37,0,112,0,1,1,1,0,0,Above,1,Homogeneous,28.11004,1,Female,18
1,-14,6,2,10,-20,-34,4,0,revperc,revperc,wav/revperc_masker_64.wav,wav/target_50.wav,0.405,1,0,0,0,8,8,SC,1,2,2,1,0.4172,NA,1373.9352,1373.9362,NA,1373.9366,1373.9371,,37,1,113,1,1,2,0,1,0,Above,1,Homogeneous,28.11004,1,Female,18
1,-54,3,3,10,-20,-74,2,0,perc,perc,wav/perc_masker_62.wav,wav/target_8.wav,0.38,0,0,0,0,16,16,SC,1,2,2,1,0.8839,NA,1379.8508,1379.8518,NA,1379.8521,1379.8525,,37,2,114,1,1,2,0,1,0,Above,1,Homogeneous,28.11004,1,Female,18
1,-38,4,1,11,-20,-58,1,0,perc,perc,wav/perc_masker_61.wav,wav/target_23.wav,0.405,1,1,0,0,8,8,SC,1,2,2,1,0.3185,NA,1385.2009,1385.2019,NA,1385.2022,1385.2025,,38,0,115,1,1,2,0,1,0,Above,1,Homogeneous,28.11004,1,Female,18
1,-14,6,2,11,-20,-34,-2,0,revperc,revperc,wav/revperc_masker_58.wav,wav/target_44.wav,0.405,2,1,0,1,4,4,SC,1,2,1,1,0.4668,NA,1390.7017,1390.7028,NA,1390.7033,1390.7036,,38,1,116,0,1,1,1,0,0,Above,1,Homogeneous,28.11004,1,Female,18
1,-59,3,3,11,-20,-79,6,0,perc,perc,wav/perc_masker_66.wav,wav/target_7.wav,0.38,1,1,0,1,8,8,SC,0,2,2,0,0.4949,NA,1396.218,1396.2189,NA,1396.2192,1396.2196,,38,2,117,0,1,1,1,0,0,Above,1,Homogeneous,28.11004,1,Female,18
1,-43,3,1,12,-20,-63,-3,0,perc,perc,wav/perc_masker_57.wav,wav/target_14.wav,0.38,1,1,0,0,8,8,SC,1,2,3,1,0.5373,NA,1401.7852,1401.7864,NA,1401.7868,1401.7871,,39,0,118,2,1,3,0,0,1,Above,1,Homogeneous,28.11004,1,Female,18
1,-38,4,2,12,-20,-58,-2,0,perc,perc,wav/perc_masker_58.wav,wav/target_20.wav,0.405,2,2,0,1,4,4,SC,1,2,2,1,0.3943,NA,1407.2017,1407.2025,NA,1407.2029,1407.2032,,39,1,119,1,1,2,0,1,0,Above,1,Homogeneous,28.11004,1,Female,18
1,-22,6,3,12,-20,-42,3,0,revperc,revperc,wav/revperc_masker_63.wav,wav/target_41.wav,0.405,2,1,0,0,4,4,SC,1,2,3,1,0.6461,NA,1412.8679,1412.8686,NA,1412.8688,1412.8693,,39,2,120,2,1,3,0,0,1,Above,1,Homogeneous,28.11004,1,Female,18
1,-22,6,1,13,-20,-42,-9,0,revperc,revperc,wav/revperc_masker_51.wav,wav/target_29.wav,0.405,2,0,0,0,4,4,SC,1,2,2,1,0.7184,NA,1418.6184,1418.6193,NA,1418.6196,1418.6199,,40,0,121,1,1,2,0,1,0,Above,1,Homogeneous,28.11004,1,Female,18
1,-43,3,2,13,-20,-63,5,0,perc,perc,wav/perc_masker_65.wav,wav/target_22.wav,0.38,1,0,0,0,8,8,SC,0,2,2,0,0.0836,NA,1423.7342,1423.7351,NA,1423.7354,1423.7357,,40,1,122,0,1,1,1,0,0,Above,1,Homogeneous,28.11004,1,Female,18
1,-46,4,3,13,-20,-66,1,0,perc,perc,wav/perc_masker_61.wav,wav/target_15.wav,0.405,2,2,0,0,4,4,SC,1,2,1,1,0.3016,NA,1429.0685,1429.0694,NA,1429.0698,1429.0702000000001,,40,2,123,0,1,1,1,0,0,Above,1,Homogeneous,28.11004,1,Female,18
1,-26,6,1,14,-20,-46,-1,0,revperc,revperc,wav/revperc_masker_59.wav,wav/target_33.wav,0.405,2,0,0,0,4,4,SC,1,2,2,1,0.8111,NA,1434.9008,1434.901,NA,1434.9012,1434.9013,,41,0,124,1,1,2,0,1,0,Above,1,Homogeneous,28.11004,1,Female,18
1,-35,3,2,14,-20,-55,10,0,perc,perc,wav/perc_masker_70.wav,wav/target_35.wav,0.38,1,0,0,0,8,8,SC,1,2,2,1,0.3335,NA,1440.2677,1440.2686,NA,1440.2689,1440.2692,,41,1,125,1,1,2,0,1,0,Above,1,Homogeneous,28.11004,1,Female,18
1,-46,4,3,14,-20,-66,-2,0,perc,perc,wav/perc_masker_58.wav,wav/target_12.wav,0.405,3,3,0,1,2,2,SC,0,2,1,0,0.7352,NA,1446.0354,1446.0363,NA,1446.0366,1446.037,,41,2,126,2,1,3,0,0,1,Above,1,Homogeneous,28.11004,1,Female,18
1,-42,4,1,15,-20,-62,7,0,perc,perc,wav/perc_masker_67.wav,wav/target_25.wav,0.405,3,3,0,0,2,2,SC,1,2,3,1,0.3785,NA,1451.4353,1451.4362,NA,1451.4365,1451.4369,,42,0,127,2,1,3,0,0,1,Above,1,Homogeneous,28.11004,1,Female,18
1,-26,6,2,15,-20,-46,-4,0,revperc,revperc,wav/revperc_masker_56.wav,wav/target_30.wav,0.405,3,1,0,1,2,2,SC,0,2,2,0,0.2875,NA,1456.752,1456.7529,NA,1456.7532,1456.7536,,42,1,128,0,1,1,1,0,0,Above,1,Homogeneous,28.11004,1,Female,18
1,-35,3,3,15,-20,-55,7,0,perc,perc,wav/perc_masker_67.wav,wav/target_32.wav,0.38,2,1,0,1,4,4,SC,1,2,1,1,0.3335,NA,1462.1188,1462.1198,NA,1462.1202,1462.1206,,42,2,129,0,1,1,1,0,0,Above,1,Homogeneous,28.11004,1,Female,18
1,-22,6,1,16,-20,-42,-1,0,revperc,revperc,wav/revperc_masker_59.wav,wav/target_37.wav,0.405,3,1,0,0,2,2,SC,1,2,1,1,0.3512,NA,1467.5021,1467.5029,NA,1467.5033,1467.5038,,43,0,130,0,1,1,1,0,0,Above,1,Homogeneous,28.11004,1,Female,18
1,-43,3,2,16,-20,-63,-10,0,perc,perc,wav/perc_masker_50.wav,wav/target_7.wav,0.38,3,2,0,1,2,2,SC,0,2,2,0,0.3504,NA,1472.8853,1472.8861,NA,1472.8864,1472.8868,,43,1,131,2,1,3,0,0,1,Above,1,Homogeneous,28.11004,1,Female,18
1,-42,4,3,16,-20,-62,-10,0,perc,perc,wav/perc_masker_50.wav,wav/target_8.wav,0.405,4,4,1,1,2,2,SC,1,2,2,1,0.7772,NA,1478.6851,1478.686,NA,1478.6862,1478.6866,,43,2,132,1,1,2,0,1,0,Above,1,Homogeneous,28.11004,1,Female,18
1,-22,6,1,17,-20,-42,-5,0,revperc,revperc,wav/revperc_masker_55.wav,wav/target_33.wav,0.405,3,0,0,0,2,2,SC,0,2,1,0,0.4004,NA,1484.118,1484.1188,NA,1484.1192,1484.1196,,44,0,133,2,1,3,0,0,1,Above,1,Homogeneous,28.11004,1,Female,18
1,-39,3,2,17,-20,-59,6,0,perc,perc,wav/perc_masker_66.wav,wav/target_27.wav,0.38,3,2,0,0,2,2,SC,1,2,2,1,0.5105,NA,1489.6515,1489.652,NA,1489.6522,1489.6525,,44,1,134,1,1,2,0,1,0,Above,1,Homogeneous,28.11004,1,Female,18
1,-44,4,3,17,-20,-64,10,0,perc,perc,wav/perc_masker_70.wav,wav/target_26.wav,0.405,4,4,1,0,2,2,SC,1,2,3,1,0.3112,NA,1494.9852,1494.9861,NA,1494.9864,1494.9868,,44,2,135,2,1,3,0,0,1,Above,1,Homogeneous,28.11004,1,Female,18
1,-20,6,1,18,-20,-40,0,0,revperc,revperc,wav/revperc_masker_60.wav,wav/target_40.wav,0.405,3,0,0,0,2,2,SC,1,2,1,1,0.2949,NA,1500.302,1500.3029,NA,1500.3032,1500.3035,,45,0,136,0,1,1,1,0,0,Above,1,Homogeneous,28.11004,1,Female,18
1,-39,3,2,18,-20,-59,10,0,perc,perc,wav/perc_masker_70.wav,wav/target_31.wav,0.38,4,3,1,1,2,2,SC,1,2,3,1,0.4529,NA,1505.7854,1505.7863,NA,1505.7866,1505.7869,,45,1,137,2,1,3,0,0,1,Above,1,Homogeneous,28.11004,1,Female,18
1,-44,4,3,18,-20,-64,-2,0,perc,perc,wav/perc_masker_58.wav,wav/target_14.wav,0.405,5,5,2,1,2,2,SC,0,2,2,0,0.332,NA,1511.1523,1511.1531,NA,1511.1534,1511.1538,,45,2,138,0,1,1,1,0,0,Above,1,Homogeneous,28.11004,1,Female,18
1,-20,6,1,19,-20,-40,10,0,revperc,revperc,wav/revperc_masker_70.wav,wav/target_50.wav,0.405,4,1,1,1,2,2,SC,1,2,3,1,0.467,NA,1516.6525,1516.6534,NA,1516.6538,1516.6542,,46,0,139,2,1,3,0,0,1,Above,1,Homogeneous,28.11004,1,Female,18
1,-41,3,2,19,-20,-61,-9,0,perc,perc,wav/perc_masker_51.wav,wav/target_10.wav,0.38,5,4,2,1,2,2,SC,0,2,2,0,0.3436,NA,1522.0178,1522.0186,NA,1522.0189,1522.0192,,46,1,140,2,1,3,0,0,1,Above,1,Homogeneous,28.11004,1,Female,18
1,-42,4,3,19,-20,-62,4,0,perc,perc,wav/perc_masker_64.wav,wav/target_22.wav,0.405,5,5,2,0,2,2,SC,1,2,2,1,0.3036,NA,1527.3524,1527.3536,NA,1527.3539,1527.3543,,46,2,141,1,1,2,0,1,0,Above,1,Homogeneous,28.11004,1,Female,18
1,-42,4,1,20,-20,-62,-5,0,perc,perc,wav/perc_masker_55.wav,wav/target_13.wav,0.405,5,0,0,0,2,2,SC,0,2,1,0,0.3156,NA,1532.7023,1532.7032,NA,1532.7035,1532.704,,47,0,142,1,1,2,0,1,0,Above,1,Homogeneous,28.11004,1,Female,18
1,-22,6,2,20,-20,-42,3,0,revperc,revperc,wav/revperc_masker_63.wav,wav/target_41.wav,0.405,4,1,1,0,2,2,SC,1,2,3,1,0.9006,NA,1538.6357,1538.6367,NA,1538.637,1538.6374,,47,1,143,2,1,3,0,0,1,Above,1,Homogeneous,28.11004,1,Female,18
1,-39,3,3,20,-20,-59,-3,0,perc,perc,wav/perc_masker_57.wav,wav/target_18.wav,0.38,5,4,2,0,2,2,SC,1,2,2,1,0.951,NA,1544.6191,1544.6199,NA,1544.6202,1544.6206,,47,2,144,1,1,2,0,1,0,Above,1,Homogeneous,28.11004,1,Female,18
1,-22,6,1,21,-20,-42,7,0,revperc,revperc,wav/revperc_masker_67.wav,wav/target_45.wav,0.405,4,0,0,0,2,2,SC,1,2,2,1,0.3606,NA,1550.0022,1550.003,NA,1550.0033,1550.0036,,48,0,145,1,1,2,0,1,0,Above,1,Homogeneous,28.11004,1,Female,18
1,-39,3,2,21,-20,-59,5,0,perc,perc,wav/perc_masker_65.wav,wav/target_26.wav,0.38,5,0,0,0,2,2,SC,0,2,1,0,0.344,NA,1555.3685,1555.3691,NA,1555.3694,1555.3698,,48,1,146,2,1,3,0,0,1,Above,1,Homogeneous,28.11004,1,Female,18
1,-40,4,3,21,-20,-60,-8,0,perc,perc,wav/perc_masker_52.wav,wav/target_12.wav,0.405,5,0,0,0,2,2,SC,0,2,2,0,0.4441,NA,1560.8357,1560.8366,NA,1560.8369,1560.8373,,48,2,147,2,1,3,0,0,1,Above,1,Homogeneous,28.11004,1,Female,18
1,-24,6,1,22,-20,-44,-7,0,revperc,revperc,wav/revperc_masker_53.wav,wav/target_29.wav,0.405,5,1,1,1,2,2,SC,0,2,3,0,0.3354,NA,1566.2025,1566.2034,NA,1566.2037,1566.2041,,49,0,148,1,1,2,0,1,0,Above,1,Homogeneous,28.11004,1,Female,18
1,-37,3,2,22,-20,-57,4,0,perc,perc,wav/perc_masker_64.wav,wav/target_27.wav,0.38,5,0,0,0,2,2,SC,0,2,2,0,1.2435,NA,1572.4688,1572.4697,NA,1572.47,1572.4704,,49,1,149,2,1,3,0,0,1,Above,1,Homogeneous,28.11004,1,Female,18
1,-38,4,3,22,-20,-58,-4,0,perc,perc,wav/perc_masker_56.wav,wav/target_18.wav,0.405,5,0,0,0,2,2,SC,1,2,3,1,1.2619,NA,1578.7522,1578.7529,NA,1578.7531,1578.7535,,49,2,150,2,1,3,0,0,1,Above,1,Homogeneous,28.11004,1,Female,18
1,-38,4,1,23,-20,-58,3,0,perc,perc,wav/perc_masker_63.wav,wav/target_25.wav,0.405,6,1,1,1,2,2,SC,1,2,3,1,0.3549,NA,1584.136,1584.1369,NA,1584.1372,1584.1377,,50,0,151,2,1,3,0,0,1,Above,1,Homogeneous,28.11004,1,Female,18
1,-22,6,2,23,-20,-42,-10,0,revperc,revperc,wav/revperc_masker_50.wav,wav/target_28.wav,0.405,5,1,1,0,2,2,SC,1,2,1,1,0.3107,NA,1589.4693,1589.4702,NA,1589.4706,1589.4711,,50,1,152,0,1,1,1,0,0,Above,1,Homogeneous,28.11004,1,Female,18
1,-35,3,3,23,-20,-55,-9,0,perc,perc,wav/perc_masker_51.wav,wav/target_16.wav,0.38,5,0,0,0,2,2,SC,0,2,2,0,0.3611,NA,1594.8516,1594.8523,NA,1594.8527,1594.8531,,50,2,153,2,1,3,0,0,1,Above,1,Homogeneous,28.11004,1,Female,18
1,-40,4,1,24,-20,-60,-3,0,perc,perc,wav/perc_masker_57.wav,wav/target_17.wav,0.405,7,2,2,1,2,2,SC,0,2,1,0,0.328,NA,1600.2023,1600.2032,NA,1600.2036,1600.204,,51,0,154,1,1,2,0,1,0,Above,1,Homogeneous,28.11004,1,Female,18
1,-22,6,2,24,-20,-42,-10,0,revperc,revperc,wav/revperc_masker_50.wav,wav/target_28.wav,0.405,5,0,0,0,2,2,SC,0,2,2,0,0.3684,NA,1605.6022,1605.603,NA,1605.6033,1605.6037,,51,1,155,0,1,1,1,0,0,Above,1,Homogeneous,28.11004,1,Female,18
1,-33,3,3,24,-20,-53,10,0,perc,perc,wav/perc_masker_70.wav,wav/target_37.wav,0.38,5,0,0,0,2,2,SC,1,2,2,1,0.4281,NA,1611.0527,1611.0536,NA,1611.0538,1611.0542,,51,2,156,1,1,2,0,1,0,Above,1,Homogeneous,28.11004,1,Female,18
1,-38,4,1,25,-20,-58,-10,0,perc,perc,wav/perc_masker_50.wav,wav/target_12.wav,0.405,7,0,0,0,2,2,SC,0,2,3,0,0.7438,NA,1616.8192,1616.8201,NA,1616.8204,1616.8209,,52,0,157,1,1,2,0,1,0,Above,1,Homogeneous,28.11004,1,Female,18
1,-20,6,2,25,-20,-40,-9,0,revperc,revperc,wav/revperc_masker_51.wav,wav/target_31.wav,0.405,5,0,0,0,2,2,SC,1,2,1,1,0.4119,NA,1622.2526,1622.2533,NA,1622.2536,1622.254,,52,1,158,0,1,1,1,0,0,Above,1,Homogeneous,28.11004,1,Female,18
1,-33,3,3,25,-20,-53,2,0,perc,perc,wav/perc_masker_62.wav,wav/target_29.wav,0.38,6,1,1,1,2,2,SC,1,2,1,1,0.5669,NA,1627.8522,1627.8531,NA,1627.8535,1627.8539,,52,2,159,0,1,1,1,0,0,Above,1,Homogeneous,28.11004,1,Female,18
1,-35,3,1,26,-20,-55,1,0,perc,perc,wav/perc_masker_61.wav,wav/target_26.wav,0.38,6,1,1,0,2,2,SC,1,2,3,1,0.7106,NA,1633.5864,1633.5873,NA,1633.5876,1633.5879,,53,0,160,2,1,3,0,0,1,Above,1,Homogeneous,28.11004,1,Female,18
1,-36,4,2,26,-20,-56,-3,0,perc,perc,wav/perc_masker_57.wav,wav/target_21.wav,0.405,7,0,0,0,2,2,SC,1,2,3,1,0.4439,NA,1639.0526,1639.0534,NA,1639.0538,1639.0541,,53,1,161,2,1,3,0,0,1,Above,1,Homogeneous,28.11004,1,Female,18
1,-20,6,3,26,-20,-40,10,0,revperc,revperc,wav/revperc_masker_70.wav,wav/target_50.wav,0.405,6,1,1,1,2,2,SC,1,2,2,1,0.3514,NA,1644.4361,1644.4371,NA,1644.4375,1644.438,,53,2,162,1,1,2,0,1,0,Above,1,Homogeneous,28.11004,1,Female,18
1,-35,3,1,27,-20,-55,-8,0,perc,perc,wav/perc_masker_52.wav,wav/target_17.wav,0.38,7,2,2,1,2,2,SC,0,2,2,0,0.5945,NA,1650.0529,1650.0538,NA,1650.0541,1650.0545,,54,0,163,0,1,1,1,0,0,Above,1,Homogeneous,28.11004,1,Female,18
1,-36,4,2,27,-20,-56,-7,0,perc,perc,wav/perc_masker_53.wav,wav/target_17.wav,0.405,8,1,1,1,2,2,SC,1,2,1,1,0.7445,NA,1655.8193,1655.8204,NA,1655.8208,1655.8213,,54,1,164,0,1,1,1,0,0,Above,1,Homogeneous,28.11004,1,Female,18
1,-33,3,1,28,-20,-53,-5,0,perc,perc,wav/perc_masker_55.wav,wav/target_22.wav,0.38,7,2,2,0,2,2,SC,1,2,2,1,0.3192,NA,1661.1702,1661.1713,NA,1661.1718,1661.1723,,54,2,165,1,1,2,0,1,0,Above,1,Homogeneous,28.11004,1,Female,18
1,-22,6,2,27,-20,-42,-6,0,revperc,revperc,wav/revperc_masker_54.wav,wav/target_32.wav,0.405,6,1,1,0,2,2,SC,1,2,1,1,0.3633,NA,1666.5529,1666.554,NA,1666.5543,1666.5546,,55,0,166,0,1,1,1,0,0,Above,1,Homogeneous,28.11004,1,Female,18
1,-33,3,1,29,-20,-53,8,0,perc,perc,wav/perc_masker_68.wav,wav/target_35.wav,0.38,8,3,3,1,2,2,SC,1,2,1,1,0.5505,NA,1672.1368,1672.1377,NA,1672.138,1672.1383,,55,1,167,0,1,1,1,0,0,Above,1,Homogeneous,28.11004,1,Female,18
1,-22,6,1,28,-20,-42,-10,0,revperc,revperc,wav/revperc_masker_50.wav,wav/target_28.wav,0.405,6,0,0,0,2,2,SC,1,2,3,1,0.5299,NA,1677.6863,1677.6872,NA,1677.6876,1677.6879,,55,2,168,2,1,3,0,0,1,Above,1,Homogeneous,28.11004,1,Female,18
1,-24,6,1,29,-20,-44,-7,0,revperc,revperc,wav/revperc_masker_53.wav,wav/target_29.wav,0.405,7,1,1,1,2,2,SC,0,2,2,0,0.1107,NA,1682.8196,1682.8204,NA,1682.8207,1682.821,,56,0,169,2,1,3,0,0,1,Above,1,Homogeneous,28.11004,1,Female,18
1,-22,6,1,30,-20,-42,2,0,revperc,revperc,wav/revperc_masker_62.wav,wav/target_40.wav,0.405,7,1,1,0,2,2,SC,1,2,2,1,0.3127,NA,1688.1532,1688.1542,NA,1688.1545,1688.1548,,56,1,170,1,1,2,0,1,0,Above,1,Homogeneous,28.11004,1,Female,18
1,-22,6,1,31,-20,-42,4,0,revperc,revperc,wav/revperc_masker_64.wav,wav/target_42.wav,0.405,8,2,2,1,2,2,SC,1,2,2,1,0.3278,NA,1693.5036,1693.5044,NA,1693.5047,1693.505,,56,2,171,1,1,2,0,1,0,Above,1,Homogeneous,28.11004,1,Female,18
2,10,1,1,1,-20,-10,-2,0,flat,flat,wav/flat_masker_58.wav,wav/target_68.wav,0.38,0,0,0,0,16,16,SC,1,1,2,1,5.3466,NA,1437.6544,1437.6564,NA,1437.6566,1437.6585,,0,0,1,1,1,2,0,1,0,Above,1,Homogeneous,40.222155,1,Prefer_not_to_say,17
2,10,2,2,1,-20,-10,-4,0,flat,flat,wav/flat_masker_56.wav,wav/target_66.wav,0.405,0,0,0,0,16,16,SC,1,1,2,1,0.6177,NA,1443.3048,1443.3059,NA,1443.3063,1443.3068,,0,1,2,1,1,2,0,1,0,Above,1,Homogeneous,40.222155,1,Prefer_not_to_say,17
2,10,5,3,1,-20,-10,-6,0,revperc,revperc,wav/revperc_masker_54.wav,wav/target_64.wav,0.38,0,0,0,0,16,16,SC,1,1,2,1,0.5008,NA,1448.8377,1448.8386,NA,1448.8389,1448.8392,,0,2,3,1,1,2,0,1,0,Above,1,Homogeneous,40.222155,1,Prefer_not_to_say,17
2,10,2,1,2,-20,-10,4,0,flat,flat,wav/flat_masker_64.wav,wav/target_74.wav,0.405,0,0,0,0,16,16,SC,1,1,2,1,0.5279,NA,1454.3878,1454.3888,NA,1454.3891,1454.3895,,1,0,4,1,1,2,0,1,0,Above,1,Homogeneous,40.222155,1,Prefer_not_to_say,17
2,10,5,2,2,-20,-10,-4,0,revperc,revperc,wav/revperc_masker_56.wav,wav/target_66.wav,0.38,0,0,0,0,16,16,SC,1,1,2,1,0.5168,NA,1459.9383,1459.9394,NA,1459.9398,1459.9404,,1,1,5,1,1,2,0,1,0,Above,1,Homogeneous,40.222155,1,Prefer_not_to_say,17
2,10,1,3,2,-20,-10,9,0,flat,flat,wav/flat_masker_69.wav,wav/target_79.wav,0.38,0,0,0,0,16,16,SC,1,1,1,1,0.4671,NA,1465.4379,1465.4389,NA,1465.4392,1465.4395,,1,2,6,0,1,1,1,0,0,Above,1,Homogeneous,40.222155,1,Prefer_not_to_say,17
2,-6,5,1,3,-20,-26,4,0,revperc,revperc,wav/revperc_masker_64.wav,wav/target_58.wav,0.38,0,0,0,0,16,16,SC,1,1,2,1,0.2653,NA,1470.7383,1470.7393,NA,1470.7397,1470.7402,,2,0,7,1,1,2,0,1,0,Above,1,Homogeneous,40.222155,1,Prefer_not_to_say,17
2,-6,1,2,3,-20,-26,5,0,flat,flat,wav/flat_masker_65.wav,wav/target_59.wav,0.38,0,0,0,0,16,16,SC,1,1,2,1,0.5335,NA,1476.304,1476.3049,NA,1476.3053,1476.3057,,2,1,8,1,1,2,0,1,0,Above,1,Homogeneous,40.222155,1,Prefer_not_to_say,17
2,-6,2,3,3,-20,-26,0,0,flat,flat,wav/flat_masker_60.wav,wav/target_54.wav,0.405,0,0,0,0,16,16,SC,1,1,3,1,0.2787,NA,1481.604,1481.6047,NA,1481.605,1481.6054,,2,2,9,2,1,3,0,0,1,Above,1,Homogeneous,40.222155,1,Prefer_not_to_say,17
2,-6,1,1,4,-20,-26,9,0,flat,flat,wav/flat_masker_69.wav,wav/target_63.wav,0.38,1,1,0,1,8,8,SC,0,1,1,0,0.268,NA,1486.9046,1486.9058,NA,1486.9063,1486.907,,3,0,10,2,1,3,0,0,1,Above,1,Homogeneous,40.222155,1,Prefer_not_to_say,17
2,-6,2,2,4,-20,-26,8,0,flat,flat,wav/flat_masker_68.wav,wav/target_62.wav,0.405,0,0,0,0,16,16,SC,1,1,1,1,0.2951,NA,1492.2202,1492.2215,NA,1492.2219,1492.2224,,3,1,11,0,1,1,1,0,0,Above,1,Homogeneous,40.222155,1,Prefer_not_to_say,17
2,-6,5,3,4,-20,-26,4,0,revperc,revperc,wav/revperc_masker_64.wav,wav/target_58.wav,0.38,1,1,0,1,8,8,SC,0,1,1,0,0.2174,NA,1497.4706,1497.4718,NA,1497.4721,1497.4725,,3,2,12,1,1,2,0,1,0,Above,1,Homogeneous,40.222155,1,Prefer_not_to_say,17
2,10,1,1,5,-20,-10,-3,0,flat,flat,wav/flat_masker_57.wav,wav/target_67.wav,0.38,1,1,0,0,8,8,SC,1,1,1,1,0.2781,NA,1502.7709,1502.7718,NA,1502.7721,1502.7725,,4,0,13,0,1,1,1,0,0,Above,1,Homogeneous,40.222155,1,Prefer_not_to_say,17
2,-22,2,2,5,-20,-42,9,0,flat,flat,wav/flat_masker_69.wav,wav/target_47.wav,0.405,0,0,0,0,16,16,SC,1,1,3,1,0.0672,NA,1507.8711,1507.8719,NA,1507.8722,1507.8726,,4,1,14,2,1,3,0,0,1,Above,1,Homogeneous,40.222155,1,Prefer_not_to_say,17
2,10,5,3,5,-20,-10,-6,0,revperc,revperc,wav/revperc_masker_54.wav,wav/target_64.wav,0.38,1,1,0,0,8,8,SC,1,1,2,1,0.2222,NA,1513.1216,1513.1226,NA,1513.1229,1513.1233,,4,2,15,1,1,2,0,1,0,Above,1,Homogeneous,40.222155,1,Prefer_not_to_say,17
2,10,5,1,6,-20,-10,-9,0,revperc,revperc,wav/revperc_masker_51.wav,wav/target_61.wav,0.38,2,2,0,1,4,4,SC,1,1,1,1,0.2836,NA,1518.4378,1518.4387,NA,1518.439,1518.4393,,5,0,16,0,1,1,1,0,0,Above,1,Homogeneous,40.222155,1,Prefer_not_to_say,17
2,10,1,2,6,-20,-10,-2,0,flat,flat,wav/flat_masker_58.wav,wav/target_68.wav,0.38,2,2,0,1,4,4,SC,1,1,3,1,0.2336,NA,1523.7046,1523.7056,NA,1523.706,1523.7064,,5,1,17,2,1,3,0,0,1,Above,1,Homogeneous,40.222155,1,Prefer_not_to_say,17
2,-22,2,3,6,-20,-42,2,0,flat,flat,wav/flat_masker_62.wav,wav/target_40.wav,0.405,0,0,0,0,16,16,SC,1,1,3,1,0.2352,NA,1528.9713,1528.9722,NA,1528.9726,1528.9731,,5,2,18,2,1,3,0,0,1,Above,1,Homogeneous,40.222155,1,Prefer_not_to_say,17
2,2,1,1,7,-20,-18,7,0,flat,flat,wav/flat_masker_67.wav,wav/target_69.wav,0.38,2,2,0,0,4,4,SC,1,1,1,1,0.2458,NA,1534.2377,1534.2386,NA,1534.239,1534.2394,,6,0,19,0,1,1,1,0,0,Above,1,Homogeneous,40.222155,1,Prefer_not_to_say,17
2,-38,2,2,7,-20,-58,-6,0,flat,flat,wav/flat_masker_54.wav,wav/target_16.wav,0.405,1,1,0,1,8,8,SC,0,1,1,0,0.2287,NA,1539.4863,1539.4868,NA,1539.4871,1539.4874,,6,1,20,1,1,2,0,1,0,Above,1,Homogeneous,40.222155,1,Prefer_not_to_say,17
2,2,5,3,7,-20,-18,0,0,revperc,revperc,wav/revperc_masker_60.wav,wav/target_62.wav,0.38,2,2,0,0,4,4,SC,1,1,3,1,0.0843,NA,1544.6046,1544.6054,NA,1544.6058,1544.6062,,6,2,21,2,1,3,0,0,1,Above,1,Homogeneous,40.222155,1,Prefer_not_to_say,17
2,2,1,1,8,-20,-18,-7,0,flat,flat,wav/flat_masker_53.wav,wav/target_55.wav,0.38,2,0,0,0,4,4,SC,1,1,2,1,0.1356,NA,1549.7717,1549.7728,NA,1549.7733,1549.7737,,7,0,22,1,1,2,0,1,0,Above,1,Homogeneous,40.222155,1,Prefer_not_to_say,17
2,-22,2,2,8,-20,-42,10,0,flat,flat,wav/flat_masker_70.wav,wav/target_48.wav,0.405,1,1,0,0,8,8,SC,1,1,1,1,0.2509,NA,1555.0549,1555.0557,NA,1555.0562,1555.0565,,7,1,23,0,1,1,1,0,0,Above,1,Homogeneous,40.222155,1,Prefer_not_to_say,17
2,2,5,3,8,-20,-18,-6,0,revperc,revperc,wav/revperc_masker_54.wav,wav/target_56.wav,0.38,2,0,0,0,4,4,SC,1,1,1,1,0.2386,NA,1560.321,1560.3219,NA,1560.3222,1560.3225,,7,2,24,0,1,1,1,0,0,Above,1,Homogeneous,40.222155,1,Prefer_not_to_say,17
2,-2,1,1,9,-20,-22,5,0,flat,flat,wav/flat_masker_65.wav,wav/target_63.wav,0.38,2,0,0,0,4,4,SC,1,1,1,1,0.2194,NA,1565.5717,1565.573,NA,1565.5734,1565.5737,,8,0,25,0,1,1,1,0,0,Above,1,Homogeneous,40.222155,1,Prefer_not_to_say,17
2,-22,2,2,9,-20,-42,7,0,flat,flat,wav/flat_masker_67.wav,wav/target_45.wav,0.405,2,2,0,1,4,4,SC,1,1,3,1,0.0669,NA,1570.6713,1570.6721,NA,1570.6725,1570.6729,,8,1,26,2,1,3,0,0,1,Above,1,Homogeneous,40.222155,1,Prefer_not_to_say,17
2,-2,5,3,9,-20,-22,8,0,revperc,revperc,wav/revperc_masker_68.wav,wav/target_66.wav,0.38,2,0,0,0,4,4,SC,1,1,2,1,0.2691,NA,1575.9707,1575.9715,NA,1575.9718,1575.9722,,8,2,27,1,1,2,0,1,0,Above,1,Homogeneous,40.222155,1,Prefer_not_to_say,17
2,-2,1,1,10,-20,-22,-8,0,flat,flat,wav/flat_masker_52.wav,wav/target_50.wav,0.38,2,0,0,0,4,4,SC,1,1,3,1,0.5166,NA,1581.5214,1581.5224,NA,1581.5227,1581.5231,,9,0,28,2,1,3,0,0,1,Above,1,Homogeneous,40.222155,1,Prefer_not_to_say,17
2,-30,2,2,10,-20,-50,-5,0,flat,flat,wav/flat_masker_55.wav,wav/target_25.wav,0.405,2,2,0,0,4,4,SC,1,1,1,1,0.2678,NA,1586.8219,1586.823,NA,1586.8234,1586.8238,,9,1,29,0,1,1,1,0,0,Above,1,Homogeneous,40.222155,1,Prefer_not_to_say,17
2,-2,5,3,10,-20,-22,-3,0,revperc,revperc,wav/revperc_masker_57.wav,wav/target_55.wav,0.38,2,0,0,0,4,4,SC,1,1,2,1,0.2505,NA,1592.1051,1592.1063,NA,1592.1067,1592.1073,,9,2,30,1,1,2,0,1,0,Above,1,Homogeneous,40.222155,1,Prefer_not_to_say,17
2,-6,5,1,11,-20,-26,9,0,revperc,revperc,wav/revperc_masker_69.wav,wav/target_63.wav,0.38,2,0,0,0,4,4,SC,1,1,3,1,0.0053,NA,1597.1373,1597.1382,NA,1597.1386,1597.139,,10,0,31,2,1,3,0,0,1,Above,1,Homogeneous,40.222155,1,Prefer_not_to_say,17
2,-6,1,2,11,-20,-26,6,0,flat,flat,wav/flat_masker_66.wav,wav/target_60.wav,0.38,2,0,0,0,4,4,SC,1,1,3,1,0.0673,NA,1602.2381,1602.2391,NA,1602.2394,1602.2398,,10,1,32,2,1,3,0,0,1,Above,1,Homogeneous,40.222155,1,Prefer_not_to_say,17
2,-30,2,3,11,-20,-50,-6,0,flat,flat,wav/flat_masker_54.wav,wav/target_24.wav,0.405,2,0,0,0,4,4,SC,1,1,2,1,0.0711,NA,1607.3383,1607.3393,NA,1607.3396,1607.3399,,10,2,33,1,1,2,0,1,0,Above,1,Homogeneous,40.222155,1,Prefer_not_to_say,17
2,-6,5,1,12,-20,-26,-6,0,revperc,revperc,wav/revperc_masker_54.wav,wav/target_48.wav,0.38,2,0,0,0,4,4,SC,1,1,3,1,0.1383,NA,1612.5049,1612.5059,NA,1612.5063,1612.5066,,11,0,34,2,1,3,0,0,1,Above,1,Homogeneous,40.222155,1,Prefer_not_to_say,17
2,-6,1,2,12,-20,-26,-1,0,flat,flat,wav/flat_masker_59.wav,wav/target_53.wav,0.38,2,0,0,0,4,4,SC,1,1,2,1,0.0524,NA,1617.5882,1617.5893,NA,1617.5896,1617.5902,,11,1,35,1,1,2,0,1,0,Above,1,Homogeneous,40.222155,1,Prefer_not_to_say,17
2,-34,2,3,12,-20,-54,-6,0,flat,flat,wav/flat_masker_54.wav,wav/target_20.wav,0.405,2,0,0,0,4,4,SC,1,1,2,1,0.4339,NA,1623.055,1623.0559,NA,1623.0562,1623.0566,,11,2,36,1,1,2,0,1,0,Above,1,Homogeneous,40.222155,1,Prefer_not_to_say,17
2,-10,5,1,13,-20,-30,4,0,revperc,revperc,wav/revperc_masker_64.wav,wav/target_54.wav,0.38,2,0,0,0,4,4,SC,1,1,2,1,0.2469,NA,1628.3223,1628.3232,NA,1628.3235,1628.324,,12,0,37,1,1,2,0,1,0,Above,1,Homogeneous,40.222155,1,Prefer_not_to_say,17
2,-10,1,2,13,-20,-30,-2,0,flat,flat,wav/flat_masker_58.wav,wav/target_48.wav,0.38,2,0,0,0,4,4,SC,1,1,3,1,0.0281,NA,1633.3711,1633.372,NA,1633.3724,1633.3728,,12,1,38,2,1,3,0,0,1,Above,1,Homogeneous,40.222155,1,Prefer_not_to_say,17
2,-34,2,3,13,-20,-54,-3,0,flat,flat,wav/flat_masker_57.wav,wav/target_23.wav,0.405,3,1,0,1,2,2,SC,0,1,1,0,0.2123,NA,1638.605,1638.6058,NA,1638.6061,1638.6064,,12,2,39,1,1,2,0,1,0,Above,1,Homogeneous,40.222155,1,Prefer_not_to_say,17
2,-10,5,1,14,-20,-30,10,0,revperc,revperc,wav/revperc_masker_70.wav,wav/target_60.wav,0.38,3,1,0,1,2,2,SC,0,1,1,0,1.4261,NA,1645.0543,1645.0547,NA,1645.0548,1645.055,,13,0,40,1,1,2,0,1,0,Above,1,Homogeneous,40.222155,1,Prefer_not_to_say,17
2,-10,1,2,14,-20,-30,-9,0,flat,flat,wav/flat_masker_51.wav,wav/target_41.wav,0.38,2,0,0,0,4,4,SC,1,1,1,1,0.2536,NA,1650.3383,1650.3391,NA,1650.3395,1650.3401,,13,1,41,0,1,1,1,0,0,Above,1,Homogeneous,40.222155,1,Prefer_not_to_say,17
2,-30,2,3,14,-20,-50,-5,0,flat,flat,wav/flat_masker_55.wav,wav/target_25.wav,0.405,3,1,0,0,2,2,SC,1,1,3,1,0.279,NA,1655.6383,1655.6392,NA,1655.6394,1655.6398,,13,2,42,2,1,3,0,0,1,Above,1,Homogeneous,40.222155,1,Prefer_not_to_say,17
2,-6,5,1,15,-20,-26,-4,0,revperc,revperc,wav/revperc_masker_56.wav,wav/target_50.wav,0.38,3,1,0,0,2,2,SC,1,1,1,1,0.4113,NA,1661.0717,1661.0725,NA,1661.0728,1661.0731,,14,0,43,0,1,1,1,0,0,Above,1,Homogeneous,40.222155,1,Prefer_not_to_say,17
2,-14,1,2,15,-20,-34,3,0,flat,flat,wav/flat_masker_63.wav,wav/target_49.wav,0.38,2,0,0,0,4,4,SC,1,1,2,1,0.295,NA,1666.3884,1666.3894,NA,1666.3898,1666.3902,,14,1,44,1,1,2,0,1,0,Above,1,Homogeneous,40.222155,1,Prefer_not_to_say,17
2,-30,2,3,15,-20,-50,0,0,flat,flat,wav/flat_masker_60.wav,wav/target_30.wav,0.405,4,2,1,1,2,2,SC,1,1,3,1,0.1462,NA,1671.5554,1671.5562,NA,1671.5566,1671.557,,14,2,45,2,1,3,0,0,1,Above,1,Homogeneous,40.222155,1,Prefer_not_to_say,17
2,-14,1,1,16,-20,-34,-10,0,flat,flat,wav/flat_masker_50.wav,wav/target_36.wav,0.38,3,1,0,1,2,2,SC,0,1,2,0,0.2504,NA,1676.8387,1676.8396,NA,1676.8399,1676.8403,,15,0,46,0,1,1,1,0,0,Above,1,Homogeneous,40.222155,1,Prefer_not_to_say,17
2,-32,2,2,16,-20,-52,-10,0,flat,flat,wav/flat_masker_50.wav,wav/target_18.wav,0.405,5,3,2,1,2,2,SC,0,1,1,0,0.2006,NA,1682.0722,1682.0731,NA,1682.0735,1682.0738,,15,1,47,2,1,3,0,0,1,Above,1,Homogeneous,40.222155,1,Prefer_not_to_say,17
2,-6,5,3,16,-20,-26,0,0,revperc,revperc,wav/revperc_masker_60.wav,wav/target_54.wav,0.38,4,2,1,1,2,2,SC,1,1,3,1,0.078,NA,1687.1714,1687.1721,NA,1687.1724,1687.1728,,15,2,48,2,1,3,0,0,1,Above,1,Homogeneous,40.222155,1,Prefer_not_to_say,17
2,-10,1,1,17,-20,-30,9,0,flat,flat,wav/flat_masker_69.wav,wav/target_59.wav,0.38,3,0,0,0,2,2,SC,0,1,2,0,0.0969,NA,1692.2886,1692.2895,NA,1692.2899,1692.2903,,16,0,49,0,1,1,1,0,0,Above,1,Homogeneous,40.222155,1,Prefer_not_to_say,17
2,-30,2,2,17,-20,-50,0,0,flat,flat,wav/flat_masker_60.wav,wav/target_30.wav,0.405,5,3,2,0,2,2,SC,1,1,2,1,0.368,NA,1697.6886,1697.6896,NA,1697.6899,1697.6905,,16,1,50,1,1,2,0,1,0,Above,1,Homogeneous,40.222155,1,Prefer_not_to_say,17
2,-8,5,3,17,-20,-28,-6,0,revperc,revperc,wav/revperc_masker_54.wav,wav/target_46.wav,0.38,4,2,1,0,2,2,SC,1,1,1,1,0.2288,NA,1702.9391,1702.9403,NA,1702.9407,1702.9413,,16,2,51,0,1,1,1,0,0,Above,1,Homogeneous,40.222155,1,Prefer_not_to_say,17
2,-8,1,1,18,-20,-28,7,0,flat,flat,wav/flat_masker_67.wav,wav/target_59.wav,0.38,3,0,0,0,2,2,SC,1,1,2,1,0.2514,NA,1708.2223,1708.2234,NA,1708.2239,1708.2243,,17,0,52,1,1,2,0,1,0,Above,1,Homogeneous,40.222155,1,Prefer_not_to_say,17
2,-30,2,2,18,-20,-50,7,0,flat,flat,wav/flat_masker_67.wav,wav/target_37.wav,0.405,6,4,3,1,2,2,SC,1,1,2,1,0.2496,NA,1713.5056,1713.507,NA,1713.5074,1713.508,,17,1,53,1,1,2,0,1,0,Above,1,Homogeneous,40.222155,1,Prefer_not_to_say,17
2,-8,5,3,18,-20,-28,9,0,revperc,revperc,wav/revperc_masker_69.wav,wav/target_61.wav,0.38,4,0,0,0,2,2,SC,1,1,2,1,0.22,NA,1718.7557,1718.7567,NA,1718.7572,1718.7577000000001,,17,2,54,1,1,2,0,1,0,Above,1,Homogeneous,40.222155,1,Prefer_not_to_say,17
2,-32,2,1,19,-20,-52,-9,0,flat,flat,wav/flat_masker_51.wav,wav/target_19.wav,0.405,6,4,3,0,2,2,SC,1,1,1,1,0.2621,NA,1724.038,1724.039,NA,1724.0393,1724.0397,,18,0,55,0,1,1,1,0,0,Above,1,Homogeneous,40.222155,1,Prefer_not_to_say,17
2,-10,5,2,19,-20,-30,2,0,revperc,revperc,wav/revperc_masker_62.wav,wav/target_52.wav,0.38,5,1,1,1,2,2,SC,0,1,1,0,0.0789,NA,1729.1387,1729.1396,NA,1729.1399,1729.1403,,18,1,56,1,1,2,0,1,0,Above,1,Homogeneous,40.222155,1,Prefer_not_to_say,17
2,-8,1,3,19,-20,-28,-3,0,flat,flat,wav/flat_masker_57.wav,wav/target_49.wav,0.38,4,1,1,1,2,2,SC,1,1,2,1,0.1333,NA,1734.3053,1734.3063,NA,1734.3067,1734.307,,18,2,57,1,1,2,0,1,0,Above,1,Homogeneous,40.222155,1,Prefer_not_to_say,17
2,-10,1,1,20,-20,-30,1,0,flat,flat,wav/flat_masker_61.wav,wav/target_51.wav,0.38,4,1,1,0,2,2,SC,1,1,3,1,0.4678,NA,1739.8054,1739.8063,NA,1739.8067,1739.8073,,19,0,58,2,1,3,0,0,1,Above,1,Homogeneous,40.222155,1,Prefer_not_to_say,17
2,-32,2,2,20,-20,-52,2,0,flat,flat,wav/flat_masker_62.wav,wav/target_30.wav,0.405,6,0,0,0,2,2,SC,1,1,2,1,0.2451,NA,1745.0721,1745.073,NA,1745.0733,1745.0738,,19,1,59,1,1,2,0,1,0,Above,1,Homogeneous,40.222155,1,Prefer_not_to_say,17
2,-8,5,3,20,-20,-28,9,0,revperc,revperc,wav/revperc_masker_69.wav,wav/target_61.wav,0.38,5,1,1,0,2,2,SC,1,1,2,1,0.2452,NA,1750.3388,1750.3397,NA,1750.3399,1750.3403,,19,2,60,1,1,2,0,1,0,Above,1,Homogeneous,40.222155,1,Prefer_not_to_say,17
2,-8,5,1,21,-20,-28,8,0,revperc,revperc,wav/revperc_masker_68.wav,wav/target_60.wav,0.38,5,0,0,0,2,2,SC,0,1,1,0,0.2522,NA,1755.6214,1755.6226,NA,1755.623,1755.6235,,20,0,61,2,1,3,0,0,1,Above,1,Homogeneous,40.222155,1,Prefer_not_to_say,17
2,-10,1,2,21,-20,-30,10,0,flat,flat,wav/flat_masker_70.wav,wav/target_60.wav,0.38,4,0,0,0,2,2,SC,1,1,2,1,0.2429,NA,1760.8871,1760.8877,NA,1760.888,1760.8883,,20,1,62,1,1,2,0,1,0,Above,1,Homogeneous,40.222155,1,Prefer_not_to_say,17
2,-34,2,3,21,-20,-54,10,0,flat,flat,wav/flat_masker_70.wav,wav/target_36.wav,0.405,6,0,0,0,2,2,SC,1,1,1,1,0.214,NA,1766.1229,1766.1241,NA,1766.1244,1766.1248,,20,2,63,0,1,1,1,0,0,Above,1,Homogeneous,40.222155,1,Prefer_not_to_say,17
2,-6,5,1,22,-20,-26,5,0,revperc,revperc,wav/revperc_masker_65.wav,wav/target_59.wav,0.38,5,0,0,0,2,2,SC,1,1,1,1,0.2028,NA,1771.3554,1771.3562,NA,1771.3565,1771.3569,,21,0,64,0,1,1,1,0,0,Above,1,Homogeneous,40.222155,1,Prefer_not_to_say,17
2,-12,1,2,22,-20,-32,-7,0,flat,flat,wav/flat_masker_53.wav,wav/target_41.wav,0.38,5,1,1,1,2,2,SC,0,1,2,0,0.3953,NA,1776.7721,1776.773,NA,1776.7733,1776.7738,,21,1,65,2,1,3,0,0,1,Above,1,Homogeneous,40.222155,1,Prefer_not_to_say,17
2,-34,2,3,22,-20,-54,-4,0,flat,flat,wav/flat_masker_56.wav,wav/target_22.wav,0.405,7,1,1,1,2,2,SC,0,1,2,0,0.7793,NA,1782.5721,1782.5729,NA,1782.5733,1782.5737,,21,2,66,0,1,1,1,0,0,Above,1,Homogeneous,40.222155,1,Prefer_not_to_say,17
2,-32,2,1,23,-20,-52,1,0,flat,flat,wav/flat_masker_61.wav,wav/target_29.wav,0.405,7,1,1,0,2,2,SC,1,1,1,1,0.2181,NA,1787.8225,1787.8236,NA,1787.824,1787.8246,,22,0,67,0,1,1,1,0,0,Above,1,Homogeneous,40.222155,1,Prefer_not_to_say,17
2,-6,5,2,23,-20,-26,2,0,revperc,revperc,wav/revperc_masker_62.wav,wav/target_56.wav,0.38,6,1,1,1,2,2,SC,1,1,3,1,0.045,NA,1792.889,1792.89,NA,1792.8903,1792.8909,,22,1,68,2,1,3,0,0,1,Above,1,Homogeneous,40.222155,1,Prefer_not_to_say,17
2,-10,1,3,23,-20,-30,0,0,flat,flat,wav/flat_masker_60.wav,wav/target_50.wav,0.38,5,0,0,0,2,2,SC,0,1,1,0,0.4861,NA,1798.4061,1798.4071,NA,1798.4075,1798.408,,22,2,69,1,1,2,0,1,0,Above,1,Homogeneous,40.222155,1,Prefer_not_to_say,17
2,-8,5,1,24,-20,-28,-1,0,revperc,revperc,wav/revperc_masker_59.wav,wav/target_51.wav,0.38,6,1,1,0,2,2,SC,1,1,1,1,0.0834,NA,1803.5225,1803.5235,NA,1803.5239,1803.5244,,23,0,70,0,1,1,1,0,0,Above,1,Homogeneous,40.222155,1,Prefer_not_to_say,17
2,-8,1,2,24,-20,-28,-5,0,flat,flat,wav/flat_masker_55.wav,wav/target_47.wav,0.38,5,0,0,0,2,2,SC,1,1,1,1,0.1556,NA,1808.7054,1808.7061,NA,1808.7065,1808.7069,,23,1,71,0,1,1,1,0,0,Above,1,Homogeneous,40.222155,1,Prefer_not_to_say,17
2,-32,2,3,24,-20,-52,-6,0,flat,flat,wav/flat_masker_54.wav,wav/target_22.wav,0.405,8,2,2,1,2,2,SC,1,1,1,1,0.0944,NA,1813.8225,1813.8234,NA,1813.8237,1813.8241,,23,2,72,0,1,1,1,0,0,Above,1,Homogeneous,40.222155,1,Prefer_not_to_say,17
2,-8,5,1,25,-20,-28,-2,0,revperc,revperc,wav/revperc_masker_58.wav,wav/target_50.wav,0.38,6,0,0,0,2,2,SC,1,1,2,1,0.1518,NA,1819.0053,1819.0062,NA,1819.0066,1819.007,,24,0,73,1,1,2,0,1,0,Above,1,Homogeneous,40.222155,1,Prefer_not_to_say,17
2,-8,1,2,25,-20,-28,5,0,flat,flat,wav/flat_masker_65.wav,wav/target_57.wav,0.38,5,0,0,0,2,2,SC,0,1,1,0,0.0437,NA,1824.0724,1824.0732,NA,1824.0735,1824.0739,,24,1,74,1,1,2,0,1,0,Above,1,Homogeneous,40.222155,1,Prefer_not_to_say,17
2,-10,5,1,26,-20,-30,-10,0,revperc,revperc,wav/revperc_masker_50.wav,wav/target_40.wav,0.38,6,0,0,0,2,2,SC,1,1,1,1,0.2003,NA,1829.3059,1829.3067,NA,1829.307,1829.3075,,24,2,75,0,1,1,1,0,0,Above,1,Homogeneous,40.222155,1,Prefer_not_to_say,17
2,-6,1,2,26,-20,-26,-6,0,flat,flat,wav/flat_masker_54.wav,wav/target_48.wav,0.38,5,0,0,0,2,2,SC,0,1,3,0,0.5998,NA,1834.9393,1834.9406,NA,1834.941,1834.9414,,25,0,76,0,1,1,1,0,0,Above,1,Homogeneous,40.222155,1,Prefer_not_to_say,17
2,-10,5,1,27,-20,-30,10,0,revperc,revperc,wav/revperc_masker_70.wav,wav/target_60.wav,0.38,7,1,1,1,2,2,SC,0,1,2,0,0.8286,NA,1840.7891,1840.79,NA,1840.7902,1840.7906,,25,1,77,0,1,1,1,0,0,Above,1,Homogeneous,40.222155,1,Prefer_not_to_say,17
2,-4,1,2,27,-20,-24,-10,0,flat,flat,wav/flat_masker_50.wav,wav/target_46.wav,0.38,5,0,0,0,2,2,SC,0,1,2,0,0.305,NA,1846.1227,1846.1236,NA,1846.1239,1846.1242,,25,2,78,2,1,3,0,0,1,Above,1,Homogeneous,40.222155,1,Prefer_not_to_say,17
2,-8,5,1,28,-20,-28,9,0,revperc,revperc,wav/revperc_masker_69.wav,wav/target_61.wav,0.38,7,0,0,0,2,2,SC,0,1,2,0,0.2622,NA,1851.4054,1851.406,NA,1851.4063,1851.4066,,26,0,79,0,1,1,1,0,0,Above,1,Homogeneous,40.222155,1,Prefer_not_to_say,17
2,-2,1,2,28,-20,-22,7,0,flat,flat,wav/flat_masker_67.wav,wav/target_65.wav,0.38,5,0,0,0,2,2,SC,1,1,1,1,0.2114,NA,1856.6385,1856.6393,NA,1856.6396,1856.6401,,26,1,80,0,1,1,1,0,0,Above,1,Homogeneous,40.222155,1,Prefer_not_to_say,17
2,-6,5,1,29,-20,-26,-5,0,revperc,revperc,wav/revperc_masker_55.wav,wav/target_49.wav,0.38,7,0,0,0,2,2,SC,1,1,3,1,0.184,NA,1861.8559,1861.8568,NA,1861.857,1861.8573,,26,2,81,2,1,3,0,0,1,Above,1,Homogeneous,40.222155,1,Prefer_not_to_say,17
2,-2,1,2,29,-20,-22,2,0,flat,flat,wav/flat_masker_62.wav,wav/target_60.wav,0.38,6,1,1,1,2,2,SC,1,1,2,1,0.1183,NA,1867.0054,1867.0064,NA,1867.0068,1867.0073,,27,0,82,1,1,2,0,1,0,Above,1,Homogeneous,40.222155,1,Prefer_not_to_say,17
2,-6,5,1,30,-20,-26,10,0,revperc,revperc,wav/revperc_masker_70.wav,wav/target_64.wav,0.38,7,0,0,0,2,2,SC,0,1,3,0,0.4886,NA,1872.5217,1872.5227,NA,1872.5229,1872.5234,,27,1,83,1,1,2,0,1,0,Above,1,Homogeneous,40.222155,1,Prefer_not_to_say,17
2,-4,1,2,30,-20,-24,7,0,flat,flat,wav/flat_masker_67.wav,wav/target_63.wav,0.38,6,1,1,0,2,2,SC,1,1,2,1,0.2509,NA,1877.8053,1877.8062,NA,1877.8065,1877.807,,27,2,84,1,1,2,0,1,0,Above,1,Homogeneous,40.222155,1,Prefer_not_to_say,17
2,-4,5,1,31,-20,-24,-4,0,revperc,revperc,wav/revperc_masker_56.wav,wav/target_52.wav,0.38,7,0,0,0,2,2,SC,1,1,1,1,0.312,NA,1883.1394,1883.1403,NA,1883.1406,1883.141,,28,0,85,0,1,1,1,0,0,Above,1,Homogeneous,40.222155,1,Prefer_not_to_say,17
2,-4,1,2,31,-20,-24,-8,0,flat,flat,wav/flat_masker_52.wav,wav/target_48.wav,0.38,6,0,0,0,2,2,SC,1,1,3,1,0.1465,NA,1888.3066,1888.3076,NA,1888.3079,1888.3083,,28,1,86,2,1,3,0,0,1,Above,1,Homogeneous,40.222155,1,Prefer_not_to_say,17
2,-4,5,1,32,-20,-24,-2,0,revperc,revperc,wav/revperc_masker_58.wav,wav/target_54.wav,0.38,8,1,1,1,2,2,SC,1,1,3,1,0.0796,NA,1893.406,1893.4069,NA,1893.4072,1893.4074,,28,2,87,2,1,3,0,0,1,Above,1,Homogeneous,40.222155,1,Prefer_not_to_say,17
2,-6,1,1,32,-20,-26,10,0,flat,flat,wav/flat_masker_70.wav,wav/target_64.wav,0.38,6,0,0,0,2,2,SC,1,1,3,1,0.1293,NA,1898.5559,1898.5566,NA,1898.557,1898.5574,,29,0,88,2,1,3,0,0,1,Above,1,Homogeneous,40.222155,1,Prefer_not_to_say,17
2,-6,1,1,33,-20,-26,-7,0,flat,flat,wav/flat_masker_53.wav,wav/target_47.wav,0.38,6,0,0,0,2,2,SC,1,1,1,1,0.0998,NA,1903.6888,1903.69,NA,1903.6904,1903.6908,,29,1,89,0,1,1,1,0,0,Above,1,Homogeneous,40.222155,1,Prefer_not_to_say,17
2,-8,1,1,34,-20,-28,-6,0,flat,flat,wav/flat_masker_54.wav,wav/target_46.wav,0.38,6,0,0,0,2,2,SC,1,1,1,1,0.1446,NA,1908.8555,1908.8563,NA,1908.8567,1908.8571,,29,2,90,0,1,1,1,0,0,Above,1,Homogeneous,40.222155,1,Prefer_not_to_say,17
2,-8,1,1,35,-20,-28,5,0,flat,flat,wav/flat_masker_65.wav,wav/target_57.wav,0.38,6,0,0,0,2,2,SC,1,1,1,1,0.0463,NA,1913.9228,1913.9237,NA,1913.924,1913.9243,,30,0,91,0,1,1,1,0,0,Above,1,Homogeneous,40.222155,1,Prefer_not_to_say,17
2,-10,1,1,36,-20,-30,-3,0,flat,flat,wav/flat_masker_57.wav,wav/target_47.wav,0.38,7,1,1,1,2,2,SC,0,1,2,0,0.1287,NA,1919.0726,1919.0735,NA,1919.0738,1919.0742,,30,1,92,0,1,1,1,0,0,Above,1,Homogeneous,40.222155,1,Prefer_not_to_say,17
2,-8,1,1,37,-20,-28,0,0,flat,flat,wav/flat_masker_60.wav,wav/target_52.wav,0.38,7,1,1,0,2,2,SC,1,1,2,1,0.0378,NA,1924.1395,1924.1405,NA,1924.1408,1924.1412,,30,2,93,1,1,2,0,1,0,Above,1,Homogeneous,40.222155,1,Prefer_not_to_say,17
2,-8,1,1,38,-20,-28,-2,0,flat,flat,wav/flat_masker_58.wav,wav/target_50.wav,0.38,8,2,2,1,2,2,SC,1,1,1,1,0.3802,NA,1929.5393,1929.5401,NA,1929.5406,1935.155,space,31,0,94,0,1,1,1,0,0,Above,1,Homogeneous,40.222155,1,Prefer_not_to_say,17
2,10,6,1,1,-20,-10,-8,0,revperc,revperc,wav/revperc_masker_52.wav,wav/target_62.wav,0.405,0,0,0,0,16,16,SC,1,2,1,1,0.3008,NA,1940.4896,1940.4908,NA,1940.4912,1940.4918,,31,1,95,0,1,1,1,0,0,Above,1,Homogeneous,40.222155,1,Prefer_not_to_say,17
2,10,4,2,1,-20,-10,-7,0,perc,perc,wav/perc_masker_53.wav,wav/target_63.wav,0.405,0,0,0,0,16,16,SC,1,2,2,1,0.2372,NA,1945.7562,1945.7572,NA,1945.7575,1945.7581,,31,2,96,1,1,2,0,1,0,Above,1,Homogeneous,40.222155,1,Prefer_not_to_say,17
2,10,3,3,1,-20,-10,6,0,perc,perc,wav/perc_masker_66.wav,wav/target_76.wav,0.38,0,0,0,0,16,16,SC,1,2,2,1,0.267,NA,1951.0555,1951.0565,NA,1951.0569,1951.0574,,32,0,97,1,1,2,0,1,0,Above,1,Homogeneous,40.222155,1,Prefer_not_to_say,17
2,10,6,1,2,-20,-10,4,0,revperc,revperc,wav/revperc_masker_64.wav,wav/target_74.wav,0.405,0,0,0,0,16,16,SC,1,2,2,1,0.238,NA,1956.323,1956.324,NA,1956.3244,1956.3247,,32,1,98,1,1,2,0,1,0,Above,1,Homogeneous,40.222155,1,Prefer_not_to_say,17
2,10,4,2,2,-20,-10,-7,0,perc,perc,wav/perc_masker_53.wav,wav/target_63.wav,0.405,0,0,0,0,16,16,SC,1,2,3,1,0.0452,NA,1961.3895,1961.3904,NA,1961.3907,1961.391,,32,2,99,2,1,3,0,0,1,Above,1,Homogeneous,40.222155,1,Prefer_not_to_say,17
2,10,3,3,2,-20,-10,-6,0,perc,perc,wav/perc_masker_54.wav,wav/target_64.wav,0.38,0,0,0,0,16,16,SC,1,2,2,1,0.2503,NA,1966.6721,1966.673,NA,1966.6734,1966.6739,,33,0,100,1,1,2,0,1,0,Above,1,Homogeneous,40.222155,1,Prefer_not_to_say,17
2,-6,4,1,3,-20,-26,9,0,perc,perc,wav/perc_masker_69.wav,wav/target_63.wav,0.405,0,0,0,0,16,16,SC,1,2,1,1,0.101,NA,1971.8065,1971.8077,NA,1971.8081,1971.8085,,33,1,101,0,1,1,1,0,0,Above,1,Homogeneous,40.222155,1,Prefer_not_to_say,17
2,-6,3,2,3,-20,-26,8,0,perc,perc,wav/perc_masker_68.wav,wav/target_62.wav,0.38,0,0,0,0,16,16,SC,1,2,2,1,0.1284,NA,1976.9563,1976.9572,NA,1976.9575,1976.9578,,33,2,102,1,1,2,0,1,0,Above,1,Homogeneous,40.222155,1,Prefer_not_to_say,17
2,-6,6,3,3,-20,-26,9,0,revperc,revperc,wav/revperc_masker_69.wav,wav/target_63.wav,0.405,0,0,0,0,16,16,SC,1,2,1,1,0.1949,NA,1982.1727,1982.1735,NA,1982.1739,1982.1742,,34,0,103,0,1,1,1,0,0,Above,1,Homogeneous,40.222155,1,Prefer_not_to_say,17
2,-6,6,1,4,-20,-26,8,0,revperc,revperc,wav/revperc_masker_68.wav,wav/target_62.wav,0.405,0,0,0,0,16,16,SC,1,2,3,1,0.3003,NA,1987.5068,1987.5077000000001,NA,1987.5081,1987.5085,,34,1,104,2,1,3,0,0,1,Above,1,Homogeneous,40.222155,1,Prefer_not_to_say,17
2,-6,4,2,4,-20,-26,-8,0,perc,perc,wav/perc_masker_52.wav,wav/target_46.wav,0.405,0,0,0,0,16,16,SC,1,2,3,1,0.2286,NA,1992.7563,1992.7571,NA,1992.7574,1992.7578,,34,2,105,2,1,3,0,0,1,Above,1,Homogeneous,40.222155,1,Prefer_not_to_say,17
2,-6,3,3,4,-20,-26,7,0,perc,perc,wav/perc_masker_67.wav,wav/target_61.wav,0.38,0,0,0,0,16,16,SC,1,2,3,1,0.2842,NA,1998.073,1998.0738,NA,1998.0742,1998.0746,,35,0,106,2,1,3,0,0,1,Above,1,Homogeneous,40.222155,1,Prefer_not_to_say,17
2,-22,4,1,5,-20,-42,7,0,perc,perc,wav/perc_masker_67.wav,wav/target_45.wav,0.405,0,0,0,0,16,16,SC,1,2,1,1,0.2961,NA,2003.3889,2003.3898,NA,2003.3902,2003.3906,,35,1,107,0,1,1,1,0,0,Above,1,Homogeneous,40.222155,1,Prefer_not_to_say,17
2,-22,3,2,5,-20,-42,-5,0,perc,perc,wav/perc_masker_55.wav,wav/target_33.wav,0.38,0,0,0,0,16,16,SC,1,2,2,1,0.0493,NA,2008.473,2008.474,NA,2008.4743,2008.4747,,35,2,108,1,1,2,0,1,0,Above,1,Homogeneous,40.222155,1,Prefer_not_to_say,17
2,-22,6,3,5,-20,-42,9,0,revperc,revperc,wav/revperc_masker_69.wav,wav/target_47.wav,0.405,0,0,0,0,16,16,SC,1,2,3,1,0.1446,NA,2013.6397,2013.6404,NA,2013.6407,2013.6409,,36,0,109,2,1,3,0,0,1,Above,1,Homogeneous,40.222155,1,Prefer_not_to_say,17
2,-22,3,1,6,-20,-42,9,0,perc,perc,wav/perc_masker_69.wav,wav/target_47.wav,0.38,0,0,0,0,16,16,SC,1,2,2,1,0.2162,NA,2018.8898,2018.8908,NA,2018.8913,2018.8917,,36,1,110,1,1,2,0,1,0,Above,1,Homogeneous,40.222155,1,Prefer_not_to_say,17
2,-22,6,2,6,-20,-42,4,0,revperc,revperc,wav/revperc_masker_64.wav,wav/target_42.wav,0.405,0,0,0,0,16,16,SC,1,2,3,1,0.2365,NA,2024.157,2024.1581,NA,2024.1584,2024.1588,,36,2,111,2,1,3,0,0,1,Above,1,Homogeneous,40.222155,1,Prefer_not_to_say,17
2,-22,4,3,6,-20,-42,2,0,perc,perc,wav/perc_masker_62.wav,wav/target_40.wav,0.405,0,0,0,0,16,16,SC,1,2,1,1,0.2345,NA,2029.4236,2029.4247,NA,2029.4251,2029.4255,,37,0,112,0,1,1,1,0,0,Above,1,Homogeneous,40.222155,1,Prefer_not_to_say,17
2,-38,4,1,7,-20,-58,2,0,perc,perc,wav/perc_masker_62.wav,wav/target_24.wav,0.405,0,0,0,0,16,16,SC,1,2,1,1,0.2955,NA,2034.7398,2034.7407,NA,2034.741,2034.7413,,37,1,113,0,1,1,1,0,0,Above,1,Homogeneous,40.222155,1,Prefer_not_to_say,17
2,-38,3,2,7,-20,-58,7,0,perc,perc,wav/perc_masker_67.wav,wav/target_29.wav,0.38,0,0,0,0,16,16,SC,1,2,1,1,0.2451,NA,2040.0061,2040.007,NA,2040.0073,2040.0079,,37,2,114,0,1,1,1,0,0,Above,1,Homogeneous,40.222155,1,Prefer_not_to_say,17
2,-38,6,3,7,-20,-58,5,0,revperc,revperc,wav/revperc_masker_65.wav,wav/target_27.wav,0.405,0,0,0,0,16,16,SC,1,2,1,1,0.3784,NA,2045.4064,2045.4072,NA,2045.4075,2045.4078,,38,0,115,0,1,1,1,0,0,Above,1,Homogeneous,40.222155,1,Prefer_not_to_say,17
2,-38,6,1,8,-20,-58,-5,0,revperc,revperc,wav/revperc_masker_55.wav,wav/target_17.wav,0.405,1,1,0,1,8,8,SC,0,2,3,0,0.1447,NA,2050.5733,2050.5741,NA,2050.5745,2050.5748,,38,1,116,1,1,2,0,1,0,Above,1,Homogeneous,40.222155,1,Prefer_not_to_say,17
2,-38,4,2,8,-20,-58,0,0,perc,perc,wav/perc_masker_60.wav,wav/target_22.wav,0.405,0,0,0,0,16,16,SC,1,2,2,1,0.1376,NA,2055.7401,2055.7411,NA,2055.7414,2055.7417,,38,2,117,1,1,2,0,1,0,Above,1,Homogeneous,40.222155,1,Prefer_not_to_say,17
2,-38,3,3,8,-20,-58,-3,0,perc,perc,wav/perc_masker_57.wav,wav/target_19.wav,0.38,0,0,0,0,16,16,SC,1,2,1,1,1.6688,NA,2062.4399,2062.4407,NA,2062.4411,2062.4416,,39,0,118,0,1,1,1,0,0,Above,1,Homogeneous,40.222155,1,Prefer_not_to_say,17
2,-22,6,1,9,-20,-42,-1,0,revperc,revperc,wav/revperc_masker_59.wav,wav/target_37.wav,0.405,1,1,0,0,8,8,SC,1,2,1,1,0.2628,NA,2067.7236,2067.7244,NA,2067.7247,2067.7251,,39,1,119,0,1,1,1,0,0,Above,1,Homogeneous,40.222155,1,Prefer_not_to_say,17
2,-54,4,2,9,-20,-74,-1,0,perc,perc,wav/perc_masker_59.wav,wav/target_5.wav,0.405,1,1,0,1,8,8,SC,0,2,3,0,0.7604,NA,2073.5067,2073.5075,NA,2073.5078,2073.5081,,39,2,120,0,1,1,1,0,0,Above,1,Homogeneous,40.222155,1,Prefer_not_to_say,17
2,-54,3,3,9,-20,-74,-7,-2,perc,perc,wav/perc_masker_55.wav,wav/target_1.wav,0.38,0,0,0,0,16,16,SC,1,2,3,1,0.1015,NA,2078.6403,2078.6413,NA,2078.6416,2078.642,,40,0,121,2,1,3,0,0,1,Above,1,Homogeneous,40.222155,1,Prefer_not_to_say,17
2,-22,6,1,10,-20,-42,-3,0,revperc,revperc,wav/revperc_masker_57.wav,wav/target_35.wav,0.405,2,2,0,1,4,4,SC,1,2,1,1,0.2508,NA,2083.9234,2083.9244,NA,2083.9248,2083.9252,,40,1,122,0,1,1,1,0,0,Above,1,Homogeneous,40.222155,1,Prefer_not_to_say,17
2,-38,4,2,10,-20,-58,-6,0,perc,perc,wav/perc_masker_54.wav,wav/target_16.wav,0.405,1,1,0,0,8,8,SC,1,2,3,1,0.2784,NA,2089.2236,2089.2245,NA,2089.2247,2089.2251,,40,2,123,2,1,3,0,0,1,Above,1,Homogeneous,40.222155,1,Prefer_not_to_say,17
2,-54,3,3,10,-20,-74,2,0,perc,perc,wav/perc_masker_62.wav,wav/target_8.wav,0.38,1,1,0,1,8,8,SC,0,2,3,0,0.2426,NA,2094.4888,2094.4894,NA,2094.4897,2094.49,,41,0,124,1,1,2,0,1,0,Above,1,Homogeneous,40.222155,1,Prefer_not_to_say,17
2,-38,4,1,11,-20,-58,7,0,perc,perc,wav/perc_masker_67.wav,wav/target_29.wav,0.405,2,2,0,1,4,4,SC,1,2,1,1,0.285,NA,2099.8074,2099.8086,NA,2099.809,2099.8096,,41,1,125,0,1,1,1,0,0,Above,1,Homogeneous,40.222155,1,Prefer_not_to_say,17
2,-38,3,2,11,-20,-58,5,0,perc,perc,wav/perc_masker_65.wav,wav/target_27.wav,0.38,1,1,0,0,8,8,SC,1,2,3,1,0.1999,NA,2105.0403,2105.0412,NA,2105.0415,2105.0419,,41,2,126,2,1,3,0,0,1,Above,1,Homogeneous,40.222155,1,Prefer_not_to_say,17
2,-30,6,3,11,-20,-50,-2,0,revperc,revperc,wav/revperc_masker_58.wav,wav/target_28.wav,0.405,2,2,0,0,4,4,SC,1,2,1,1,0.1954,NA,2110.2559,2110.2569,NA,2110.2573,2110.2577,,42,0,127,0,1,1,1,0,0,Above,1,Homogeneous,40.222155,1,Prefer_not_to_say,17
2,-46,4,1,12,-20,-66,8,0,perc,perc,wav/perc_masker_68.wav,wav/target_22.wav,0.405,2,2,0,0,4,4,SC,1,2,2,1,0.1346,NA,2115.4231,2115.4241,NA,2115.4245,2115.425,,42,1,128,1,1,2,0,1,0,Above,1,Homogeneous,40.222155,1,Prefer_not_to_say,17
2,-38,3,2,12,-20,-58,-7,0,perc,perc,wav/perc_masker_53.wav,wav/target_15.wav,0.38,2,2,0,1,4,4,SC,1,2,1,1,0.2281,NA,2120.6737,2120.6747,NA,2120.675,2120.6754,,42,2,129,0,1,1,1,0,0,Above,1,Homogeneous,40.222155,1,Prefer_not_to_say,17
2,-30,6,3,12,-20,-50,-7,0,revperc,revperc,wav/revperc_masker_53.wav,wav/target_23.wav,0.405,2,0,0,0,4,4,SC,1,2,3,1,0.1622,NA,2125.857,2125.8579,NA,2125.8583,2125.8587,,43,0,130,2,1,3,0,0,1,Above,1,Homogeneous,40.222155,1,Prefer_not_to_say,17
2,-46,4,1,13,-20,-66,9,0,perc,perc,wav/perc_masker_69.wav,wav/target_23.wav,0.405,2,0,0,0,4,4,SC,1,2,3,1,0.0621,NA,2130.9403,2130.9412,NA,2130.9414,2130.9418,,43,1,131,2,1,3,0,0,1,Above,1,Homogeneous,40.222155,1,Prefer_not_to_say,17
2,-46,3,2,13,-20,-66,-6,0,perc,perc,wav/perc_masker_54.wav,wav/target_8.wav,0.38,2,2,0,0,4,4,SC,1,2,1,1,0.2788,NA,2136.2402,2136.2411,NA,2136.2414,2136.2417,,43,2,132,0,1,1,1,0,0,Above,1,Homogeneous,40.222155,1,Prefer_not_to_say,17
2,-34,6,3,13,-20,-54,-5,0,revperc,revperc,wav/revperc_masker_55.wav,wav/target_21.wav,0.405,2,0,0,0,4,4,SC,1,2,2,1,0.0713,NA,2141.3403,2141.3413,NA,2141.3417,2141.3422,,44,0,133,1,1,2,0,1,0,Above,1,Homogeneous,40.222155,1,Prefer_not_to_say,17
2,-50,4,1,14,-20,-70,1,0,perc,perc,wav/perc_masker_61.wav,wav/target_11.wav,0.405,2,0,0,0,4,4,SC,1,2,3,1,0.0942,NA,2146.4568,2146.4578,NA,2146.4582,2146.4586,,44,1,134,2,1,3,0,0,1,Above,1,Homogeneous,40.222155,1,Prefer_not_to_say,17
2,-46,3,2,14,-20,-66,2,0,perc,perc,wav/perc_masker_62.wav,wav/target_16.wav,0.38,2,0,0,0,4,4,SC,1,2,3,1,0.0535,NA,2151.5406,2151.5416,NA,2151.542,2151.5424,,44,2,135,2,1,3,0,0,1,Above,1,Homogeneous,40.222155,1,Prefer_not_to_say,17
2,-34,6,3,14,-20,-54,-8,0,revperc,revperc,wav/revperc_masker_52.wav,wav/target_18.wav,0.405,2,0,0,0,4,4,SC,1,2,1,1,0.3129,NA,2156.8739,2156.875,NA,2156.8754,2156.8758,,45,0,136,0,1,1,1,0,0,Above,1,Homogeneous,40.222155,1,Prefer_not_to_say,17
2,-50,4,1,15,-20,-70,-7,0,perc,perc,wav/perc_masker_53.wav,wav/target_3.wav,0.405,3,1,0,1,2,2,SC,0,2,1,0,2.4109,NA,2164.3068,2164.3079,NA,2164.3085,2164.3089,,45,1,137,1,1,2,0,1,0,Above,1,Homogeneous,40.222155,1,Prefer_not_to_say,17
2,-50,3,2,15,-20,-70,-1,0,perc,perc,wav/perc_masker_59.wav,wav/target_9.wav,0.38,2,0,0,0,4,4,SC,1,2,2,1,0.3468,NA,2169.6737,2169.6748,NA,2169.6751,2169.6756,,45,2,138,1,1,2,0,1,0,Above,1,Homogeneous,40.222155,1,Prefer_not_to_say,17
2,-38,6,3,15,-20,-58,8,0,revperc,revperc,wav/revperc_masker_68.wav,wav/target_30.wav,0.405,2,0,0,0,4,4,SC,1,2,1,1,3e-4,NA,2174.7072,2174.7082,NA,2174.7084,2174.7089,,46,0,139,0,1,1,1,0,0,Above,1,Homogeneous,40.222155,1,Prefer_not_to_say,17
2,-46,4,1,16,-20,-66,3,0,perc,perc,wav/perc_masker_63.wav,wav/target_17.wav,0.405,3,1,0,0,2,2,SC,1,2,2,1,0.3121,NA,2180.0403,2180.0412,NA,2180.0414,2180.0418,,46,1,140,1,1,2,0,1,0,Above,1,Homogeneous,40.222155,1,Prefer_not_to_say,17
2,-50,3,2,16,-20,-70,-9,0,perc,perc,wav/perc_masker_51.wav,wav/target_1.wav,0.38,3,1,0,1,2,2,SC,0,2,3,0,0.5361,NA,2185.6072,2185.6081,NA,2185.6083,2185.6088,,46,2,141,1,1,2,0,1,0,Above,1,Homogeneous,40.222155,1,Prefer_not_to_say,17
2,-38,6,3,16,-20,-58,5,0,revperc,revperc,wav/revperc_masker_65.wav,wav/target_27.wav,0.405,2,0,0,0,4,4,SC,1,2,2,1,0.1845,NA,2190.8233,2190.8241,NA,2190.8244,2190.8248,,47,0,142,1,1,2,0,1,0,Above,1,Homogeneous,40.222155,1,Prefer_not_to_say,17
2,-46,4,1,17,-20,-66,8,0,perc,perc,wav/perc_masker_68.wav,wav/target_22.wav,0.405,4,2,1,1,2,2,SC,1,2,3,1,0.6109,NA,2196.4571,2196.458,NA,2196.4583,2196.4586,,47,1,143,2,1,3,0,0,1,Above,1,Homogeneous,40.222155,1,Prefer_not_to_say,17
2,-46,3,2,17,-20,-66,8,0,perc,perc,wav/perc_masker_68.wav,wav/target_22.wav,0.38,3,1,0,0,2,2,SC,1,2,1,1,0.2388,NA,2201.7239,2201.7247,NA,2201.725,2201.7254,,47,2,144,0,1,1,1,0,0,Above,1,Homogeneous,40.222155,1,Prefer_not_to_say,17
2,-42,6,3,17,-20,-62,-2,0,revperc,revperc,wav/revperc_masker_58.wav,wav/target_16.wav,0.405,3,1,0,1,2,2,SC,0,2,1,0,0.1003,NA,2206.8565,2206.8575,NA,2206.8578,2206.8582,,48,0,145,2,1,3,0,0,1,Above,1,Homogeneous,40.222155,1,Prefer_not_to_say,17
2,-38,6,1,18,-20,-58,-9,0,revperc,revperc,wav/revperc_masker_51.wav,wav/target_13.wav,0.405,3,0,0,0,2,2,SC,0,2,1,0,0.0787,NA,2211.9573,2211.9581,NA,2211.9584,2211.9589,,48,1,146,2,1,3,0,0,1,Above,1,Homogeneous,40.222155,1,Prefer_not_to_say,17
2,-48,4,2,18,-20,-68,3,0,perc,perc,wav/perc_masker_63.wav,wav/target_15.wav,0.405,4,2,1,0,2,2,SC,1,2,2,1,0.0992,NA,2217.0912,2217.0923,NA,2217.0927,2217.0931,,48,2,147,1,1,2,0,1,0,Above,1,Homogeneous,40.222155,1,Prefer_not_to_say,17
2,-46,3,3,18,-20,-66,-10,0,perc,perc,wav/perc_masker_50.wav,wav/target_4.wav,0.38,3,0,0,0,2,2,SC,0,2,1,0,0.5655,NA,2222.691,2222.692,NA,2222.6923,2222.6926,,49,0,148,2,1,3,0,0,1,Above,1,Homogeneous,40.222155,1,Prefer_not_to_say,17
2,-36,6,1,19,-20,-56,-3,0,revperc,revperc,wav/revperc_masker_57.wav,wav/target_21.wav,0.405,3,0,0,0,2,2,SC,1,2,3,1,0.1836,NA,2227.9078,2227.909,NA,2227.9094,2227.9098,,49,1,149,2,1,3,0,0,1,Above,1,Homogeneous,40.222155,1,Prefer_not_to_say,17
2,-48,4,2,19,-20,-68,5,0,perc,perc,wav/perc_masker_65.wav,wav/target_17.wav,0.405,4,0,0,0,2,2,SC,1,2,1,1,0.2125,NA,2233.1407,2233.1417,NA,2233.142,2233.1424,,49,2,150,0,1,1,1,0,0,Above,1,Homogeneous,40.222155,1,Prefer_not_to_say,17
2,-44,3,3,19,-20,-64,8,0,perc,perc,wav/perc_masker_68.wav,wav/target_24.wav,0.38,3,0,0,0,2,2,SC,1,2,2,1,0.6669,NA,2238.8411,2238.842,NA,2238.8423,2238.8427,,50,0,151,1,1,2,0,1,0,Above,1,Homogeneous,40.222155,1,Prefer_not_to_say,17
2,-50,4,1,20,-20,-70,3,0,perc,perc,wav/perc_masker_63.wav,wav/target_13.wav,0.405,4,0,0,0,2,2,SC,1,2,1,1,0.2395,NA,2244.1071,2244.1079,NA,2244.1081,2244.1086,,50,1,152,0,1,1,1,0,0,Above,1,Homogeneous,40.222155,1,Prefer_not_to_say,17
2,-44,3,2,20,-20,-64,8,0,perc,perc,wav/perc_masker_68.wav,wav/target_24.wav,0.38,4,1,1,1,2,2,SC,1,2,2,1,0.1779,NA,2249.3071,2249.3078,NA,2249.308,2249.3083,,50,2,153,1,1,2,0,1,0,Above,1,Homogeneous,40.222155,1,Prefer_not_to_say,17
2,-36,6,3,20,-20,-56,-10,0,revperc,revperc,wav/revperc_masker_50.wav,wav/target_14.wav,0.405,3,0,0,0,2,2,SC,0,2,1,0,0.1879,NA,2254.5243,2254.5253,NA,2254.5256,2254.5259,,51,0,154,2,1,3,0,0,1,Above,1,Homogeneous,40.222155,1,Prefer_not_to_say,17
2,-50,4,1,21,-20,-70,-1,0,perc,perc,wav/perc_masker_59.wav,wav/target_9.wav,0.405,4,0,0,0,2,2,SC,1,2,2,1,0.2286,NA,2259.7743,2259.7752,NA,2259.7755,2259.7759,,51,1,155,1,1,2,0,1,0,Above,1,Homogeneous,40.222155,1,Prefer_not_to_say,17
2,-46,3,2,21,-20,-66,-3,0,perc,perc,wav/perc_masker_57.wav,wav/target_11.wav,0.38,4,1,1,0,2,2,SC,1,2,1,1,0.002,NA,2264.8069,2264.8081,NA,2264.8086,2264.8091,,51,2,156,0,1,1,1,0,0,Above,1,Homogeneous,40.222155,1,Prefer_not_to_say,17
2,-34,6,3,21,-20,-54,5,0,revperc,revperc,wav/revperc_masker_65.wav,wav/target_31.wav,0.405,3,0,0,0,2,2,SC,1,2,1,1,0.2108,NA,2270.0394,2270.0403,NA,2270.0405,2270.041,,52,0,157,0,1,1,1,0,0,Above,1,Homogeneous,40.222155,1,Prefer_not_to_say,17
2,-52,4,1,22,-20,-72,-2,0,perc,perc,wav/perc_masker_58.wav,wav/target_6.wav,0.405,5,1,1,1,2,2,SC,0,2,1,0,0.1781,NA,2275.2398,2275.2406,NA,2275.241,2275.2413,,52,1,158,2,1,3,0,0,1,Above,1,Homogeneous,40.222155,1,Prefer_not_to_say,17
2,-46,3,2,22,-20,-66,-1,0,perc,perc,wav/perc_masker_59.wav,wav/target_13.wav,0.38,5,2,2,1,2,2,SC,0,2,3,0,0.2348,NA,2280.5081,2280.5093,NA,2280.5098,2280.5103,,52,2,159,0,1,1,1,0,0,Above,1,Homogeneous,40.222155,1,Prefer_not_to_say,17
2,-34,6,3,22,-20,-54,-10,0,revperc,revperc,wav/revperc_masker_50.wav,wav/target_16.wav,0.405,4,1,1,1,2,2,SC,1,2,2,1,0.1877,NA,2285.7246,2285.7255,NA,2285.7259,2285.7262,,53,0,160,1,1,2,0,1,0,Above,1,Homogeneous,40.222155,1,Prefer_not_to_say,17
2,-36,6,1,23,-20,-56,7,0,revperc,revperc,wav/revperc_masker_67.wav,wav/target_31.wav,0.405,4,1,1,0,2,2,SC,1,2,2,1,0.1291,NA,2290.8743,2290.8752,NA,2290.8755,2290.8759,,53,1,161,1,1,2,0,1,0,Above,1,Homogeneous,40.222155,1,Prefer_not_to_say,17
2,-50,4,2,23,-20,-70,-4,0,perc,perc,wav/perc_masker_56.wav,wav/target_6.wav,0.405,5,0,0,0,2,2,SC,0,2,1,0,0.01,NA,2295.9066,2295.9074,NA,2295.9077,2295.9081,,53,2,162,1,1,2,0,1,0,Above,1,Homogeneous,40.222155,1,Prefer_not_to_say,17
2,-44,3,3,23,-20,-64,9,0,perc,perc,wav/perc_masker_69.wav,wav/target_25.wav,0.38,5,2,2,0,2,2,SC,1,2,2,1,0.1122,NA,2301.041,2301.0422,NA,2301.0424,2301.0428,,54,0,163,1,1,2,0,1,0,Above,1,Homogeneous,40.222155,1,Prefer_not_to_say,17
2,-44,3,1,24,-20,-64,1,0,perc,perc,wav/perc_masker_61.wav,wav/target_17.wav,0.38,6,3,3,1,2,2,SC,1,2,1,1,0.2503,NA,2306.3247,2306.3256,NA,2306.3259,2306.3263,,54,1,164,0,1,1,1,0,0,Above,1,Homogeneous,40.222155,1,Prefer_not_to_say,17
2,-36,6,2,24,-20,-56,-4,0,revperc,revperc,wav/revperc_masker_56.wav,wav/target_20.wav,0.405,5,2,2,1,2,2,SC,0,2,1,0,0.2357,NA,2311.5908,2311.592,NA,2311.5924,2311.5928,,54,2,165,2,1,3,0,0,1,Above,1,Homogeneous,40.222155,1,Prefer_not_to_say,17
2,-48,4,3,24,-20,-68,-3,0,perc,perc,wav/perc_masker_57.wav,wav/target_9.wav,0.405,5,0,0,0,2,2,SC,1,2,2,1,0.2014,NA,2316.8249,2316.8261,NA,2316.8265,2316.8269,,55,0,166,1,1,2,0,1,0,Above,1,Homogeneous,40.222155,1,Prefer_not_to_say,17
2,-48,4,1,25,-20,-68,4,0,perc,perc,wav/perc_masker_64.wav,wav/target_16.wav,0.405,6,1,1,1,2,2,SC,1,2,3,1,0.2106,NA,2322.0575,2322.0584,NA,2322.0587,2322.059,,55,1,167,2,1,3,0,0,1,Above,1,Homogeneous,40.222155,1,Prefer_not_to_say,17
2,-46,3,2,25,-20,-66,-5,0,perc,perc,wav/perc_masker_55.wav,wav/target_9.wav,0.38,7,4,4,1,2,2,SC,0,2,2,0,0.2003,NA,2327.2912,2327.2921,NA,2327.2925,2327.2928,,55,2,168,0,1,1,1,0,0,Above,1,Homogeneous,40.222155,1,Prefer_not_to_say,17
2,-34,6,3,25,-20,-54,1,0,revperc,revperc,wav/revperc_masker_61.wav,wav/target_27.wav,0.405,5,2,2,0,2,2,SC,1,2,1,1,0.2131,NA,2332.5246,2332.5256,NA,2332.5258,2332.5263,,56,0,169,0,1,1,1,0,0,Above,1,Homogeneous,40.222155,1,Prefer_not_to_say,17
2,-34,6,1,26,-20,-54,-4,0,revperc,revperc,wav/revperc_masker_56.wav,wav/target_22.wav,0.405,6,3,3,1,2,2,SC,1,2,3,1,0.0954,NA,2337.6412,2337.6422,NA,2337.6426,2337.6429,,56,1,170,2,1,3,0,0,1,Above,1,Homogeneous,40.222155,1,Prefer_not_to_say,17
2,-50,4,2,26,-20,-70,4,0,perc,perc,wav/perc_masker_64.wav,wav/target_14.wav,0.405,6,1,1,0,2,2,SC,1,2,2,1,0.3828,NA,2343.0579,2343.0589,NA,2343.0591,2343.0596,,56,2,171,1,1,2,0,1,0,Above,1,Homogeneous,40.222155,1,Prefer_not_to_say,17
2,-44,3,3,26,-20,-64,-9,0,perc,perc,wav/perc_masker_51.wav,wav/target_7.wav,0.38,7,4,4,0,2,2,SC,1,2,1,1,0.1348,NA,2348.2233,2348.2243,NA,2348.2247,2348.2252,,57,0,172,0,1,1,1,0,0,Above,1,Homogeneous,40.222155,1,Prefer_not_to_say,17
2,-36,6,1,27,-20,-56,-10,0,revperc,revperc,wav/revperc_masker_50.wav,wav/target_14.wav,0.405,7,4,4,1,2,2,SC,0,2,2,0,0.5026,NA,2353.758,2353.7589,NA,2353.7593,2353.7597,,57,1,173,2,1,3,0,0,1,Above,1,Homogeneous,40.222155,1,Prefer_not_to_say,17
2,-50,4,2,27,-20,-70,-7,0,perc,perc,wav/perc_masker_53.wav,wav/target_3.wav,0.405,7,2,2,1,2,2,SC,0,2,1,0,0.5287,NA,2359.3065,2359.3071,NA,2359.3073,2359.3077,,57,2,174,2,1,3,0,0,1,Above,1,Homogeneous,40.222155,1,Prefer_not_to_say,17
2,-44,3,3,27,-20,-64,-4,0,perc,perc,wav/perc_masker_56.wav,wav/target_12.wav,0.38,7,0,0,0,2,2,SC,0,2,1,0,2.1169,NA,2366.4574,2366.4584,NA,2366.4587,2366.4597,,58,0,175,1,1,2,0,1,0,Above,1,Homogeneous,40.222155,1,Prefer_not_to_say,17
2,-42,3,1,28,-20,-62,7,0,perc,perc,wav/perc_masker_67.wav,wav/target_25.wav,0.38,7,0,0,0,2,2,SC,1,2,3,1,0.2626,NA,2371.741,2371.7421,NA,2371.7425,2371.7429,,58,1,176,2,1,3,0,0,1,Above,1,Homogeneous,40.222155,1,Prefer_not_to_say,17
2,-34,6,2,28,-20,-54,-2,0,revperc,revperc,wav/revperc_masker_58.wav,wav/target_24.wav,0.405,7,4,4,0,2,2,SC,1,2,3,1,0.1285,NA,2376.8904000000002,2376.8914,NA,2376.8917,2376.8922,,58,2,177,2,1,3,0,0,1,Above,1,Homogeneous,40.222155,1,Prefer_not_to_say,17
2,-48,4,3,28,-20,-68,3,0,perc,perc,wav/perc_masker_63.wav,wav/target_15.wav,0.405,7,2,2,0,2,2,SC,1,2,3,1,0.3322,NA,2382.258,2382.259,NA,2382.2592,2382.2596,,59,0,178,2,1,3,0,0,1,Above,1,Homogeneous,40.222155,1,Prefer_not_to_say,17
2,-42,3,1,29,-20,-62,-7,0,perc,perc,wav/perc_masker_53.wav,wav/target_11.wav,0.38,8,1,1,1,2,2,SC,1,2,1,1,0.2783,NA,2387.5579,2387.5588,NA,2387.5592,2387.5596,,59,1,179,0,1,1,1,0,0,Above,1,Homogeneous,40.222155,1,Prefer_not_to_say,17
2,-48,4,2,29,-20,-68,-7,0,perc,perc,wav/perc_masker_53.wav,wav/target_5.wav,0.405,7,0,0,0,2,2,SC,0,2,1,0,0.0788,NA,2392.6571,2392.658,NA,2392.6584,2392.6589,,59,2,180,1,1,2,0,1,0,Above,1,Homogeneous,40.222155,1,Prefer_not_to_say,17
2,-34,6,1,29,-20,-54,-6,0,revperc,revperc,wav/revperc_masker_54.wav,wav/target_20.wav,0.405,7,0,0,0,2,2,SC,0,2,3,0,0.111,NA,2397.7911,2397.7918,NA,2397.7921,2397.7925,,60,0,181,1,1,2,0,1,0,Above,1,Homogeneous,40.222155,1,Prefer_not_to_say,17
2,-46,4,2,30,-20,-66,-10,0,perc,perc,wav/perc_masker_50.wav,wav/target_4.wav,0.405,7,0,0,0,2,2,SC,1,2,1,1,0.3843,NA,2403.2081,2403.209,NA,2403.2094,2403.2097,,60,1,182,0,1,1,1,0,0,Above,1,Homogeneous,40.222155,1,Prefer_not_to_say,17
2,-32,6,1,30,-20,-52,-1,0,revperc,revperc,wav/revperc_masker_59.wav,wav/target_27.wav,0.405,7,0,0,0,2,2,SC,1,2,3,1,0.0719,NA,2408.3081,2408.3091,NA,2408.3095,2408.3099,,60,2,183,2,1,3,0,0,1,Above,1,Homogeneous,40.222155,1,Prefer_not_to_say,17
2,-46,4,2,31,-20,-66,0,0,perc,perc,wav/perc_masker_60.wav,wav/target_14.wav,0.405,8,1,1,1,2,2,SC,1,2,1,1,0.3621,NA,2413.6915,2413.6925,NA,2413.6928,2413.6932,,61,0,184,0,1,1,1,0,0,Above,1,Homogeneous,40.222155,1,Prefer_not_to_say,17
2,-32,6,1,31,-20,-52,-2,0,revperc,revperc,wav/revperc_masker_58.wav,wav/target_26.wav,0.405,8,1,1,1,2,2,SC,1,2,3,1,0.2051,NA,2418.9253,2418.9262,NA,2418.9265,2418.927,,61,1,185,2,1,3,0,0,1,Above,1,Homogeneous,40.222155,1,Prefer_not_to_say,17
3,10,4,1,1,-20,-10,-8,0,perc,perc,wav/perc_masker_52.wav,wav/target_62.wav,0.405,0,0,0,0,16,16,SC,1,1,2,1,3.914,NA,1559.4272,1559.4297,NA,1559.4298,1559.431,,0,0,1,1,1,2,0,1,0,Above,1,Homogeneous,41.70021499999999,1,Female,18
3,10,3,2,1,-20,-10,4,0,perc,perc,wav/perc_masker_64.wav,wav/target_74.wav,0.38,0,0,0,0,16,16,SC,1,1,2,1,2.4517,NA,1566.9101,1566.9111,NA,1566.9115,1566.9118,,0,1,2,1,1,2,0,1,0,Above,1,Homogeneous,41.70021499999999,1,Female,18
3,10,1,3,1,-20,-10,-10,0,flat,flat,wav/flat_masker_50.wav,wav/target_60.wav,0.38,0,0,0,0,16,16,SC,1,1,1,1,3.3455,NA,1575.2766,1575.2776,NA,1575.2779,1575.2784,,0,2,3,0,1,1,1,0,0,Above,1,Homogeneous,41.70021499999999,1,Female,18
3,10,1,1,2,-20,-10,-10,0,flat,flat,wav/flat_masker_50.wav,wav/target_60.wav,0.38,0,0,0,0,16,16,SC,1,1,2,1,0.6669,NA,1580.9774,1580.9787,NA,1580.979,1580.9795,,1,0,4,1,1,2,0,1,0,Above,1,Homogeneous,41.70021499999999,1,Female,18
3,10,4,2,2,-20,-10,-3,0,perc,perc,wav/perc_masker_57.wav,wav/target_67.wav,0.405,0,0,0,0,16,16,SC,1,1,1,1,0.662,NA,1586.6593,1586.6599,NA,1586.6602,1586.6605,,1,1,5,0,1,1,1,0,0,Above,1,Homogeneous,41.70021499999999,1,Female,18
3,10,3,3,2,-20,-10,-6,0,perc,perc,wav/perc_masker_54.wav,wav/target_64.wav,0.38,0,0,0,0,16,16,SC,1,1,3,1,0.6837,NA,1592.3759,1592.3769,NA,1592.3772,1592.3776,,1,2,6,2,1,3,0,0,1,Above,1,Homogeneous,41.70021499999999,1,Female,18
3,-6,1,1,3,-20,-26,3,0,flat,flat,wav/flat_masker_63.wav,wav/target_57.wav,0.38,0,0,0,0,16,16,SC,1,1,3,1,2.0387,NA,1599.4435,1599.4444,NA,1599.4449,1599.4455,,2,0,7,2,1,3,0,0,1,Above,1,Homogeneous,41.70021499999999,1,Female,18
3,-6,4,2,3,-20,-26,-10,0,perc,perc,wav/perc_masker_50.wav,wav/target_44.wav,0.405,0,0,0,0,16,16,SC,1,1,1,1,0.8113,NA,1605.2764,1605.2772,NA,1605.2776,1605.278,,2,1,8,0,1,1,1,0,0,Above,1,Homogeneous,41.70021499999999,1,Female,18
3,-6,3,3,3,-20,-26,-10,0,perc,perc,wav/perc_masker_50.wav,wav/target_44.wav,0.38,0,0,0,0,16,16,SC,1,1,3,1,0.6459,NA,1610.9434,1610.9443,NA,1610.9446,1610.945,,2,2,9,2,1,3,0,0,1,Above,1,Homogeneous,41.70021499999999,1,Female,18
3,-6,3,1,4,-20,-26,0,0,perc,perc,wav/perc_masker_60.wav,wav/target_54.wav,0.38,0,0,0,0,16,16,SC,1,1,2,1,0.629,NA,1616.5934,1616.5944,NA,1616.5947,1616.595,,3,0,10,1,1,2,0,1,0,Above,1,Homogeneous,41.70021499999999,1,Female,18
3,-6,1,2,4,-20,-26,10,0,flat,flat,wav/flat_masker_70.wav,wav/target_64.wav,0.38,1,1,0,1,8,8,SC,0,1,1,0,0.9776,NA,1622.5934,1622.5944,NA,1622.5948,1622.5951,,3,1,11,2,1,3,0,0,1,Above,1,Homogeneous,41.70021499999999,1,Female,18
3,-6,4,3,4,-20,-26,-10,0,perc,perc,wav/perc_masker_50.wav,wav/target_44.wav,0.405,0,0,0,0,16,16,SC,1,1,2,1,0.6533,NA,1628.2772,1628.2783,NA,1628.2787,1628.2791,,3,2,12,1,1,2,0,1,0,Above,1,Homogeneous,41.70021499999999,1,Female,18
3,-22,4,1,5,-20,-42,4,0,perc,perc,wav/perc_masker_64.wav,wav/target_42.wav,0.405,0,0,0,0,16,16,SC,1,1,2,1,0.5624,NA,1633.8601,1633.861,NA,1633.8613,1633.8617,,4,0,13,1,1,2,0,1,0,Above,1,Homogeneous,41.70021499999999,1,Female,18
3,-22,3,2,5,-20,-42,5,0,perc,perc,wav/perc_masker_65.wav,wav/target_43.wav,0.38,0,0,0,0,16,16,SC,1,1,3,1,0.5493,NA,1639.4439,1639.4449,NA,1639.4453,1639.4458,,4,1,14,2,1,3,0,0,1,Above,1,Homogeneous,41.70021499999999,1,Female,18
3,10,1,3,5,-20,-10,-8,0,flat,flat,wav/flat_masker_52.wav,wav/target_62.wav,0.38,1,1,0,0,8,8,SC,1,1,3,1,0.7949,NA,1645.2596,1645.2603,NA,1645.2605,1645.261,,4,2,15,2,1,3,0,0,1,Above,1,Homogeneous,41.70021499999999,1,Female,18
3,-22,4,1,6,-20,-42,-2,0,perc,perc,wav/perc_masker_58.wav,wav/target_36.wav,0.405,0,0,0,0,16,16,SC,1,1,3,1,0.9328,NA,1651.2265,1651.2276,NA,1651.228,1651.2284,,5,0,16,2,1,3,0,0,1,Above,1,Homogeneous,41.70021499999999,1,Female,18
3,-22,3,2,6,-20,-42,0,0,perc,perc,wav/perc_masker_60.wav,wav/target_38.wav,0.38,0,0,0,0,16,16,SC,1,1,1,1,0.3721,NA,1656.6268,1656.6277,NA,1656.628,1656.6284,,5,1,17,0,1,1,1,0,0,Above,1,Homogeneous,41.70021499999999,1,Female,18
3,10,1,3,6,-20,-10,-4,0,flat,flat,wav/flat_masker_56.wav,wav/target_66.wav,0.38,2,2,0,1,4,4,SC,1,1,3,1,0.5953,NA,1662.2432,1662.2439,NA,1662.2441,1662.2445,,5,2,18,2,1,3,0,0,1,Above,1,Homogeneous,41.70021499999999,1,Female,18
3,2,1,1,7,-20,-18,-2,0,flat,flat,wav/flat_masker_58.wav,wav/target_60.wav,0.38,2,2,0,0,4,4,SC,1,1,2,1,0.588,NA,1667.8604,1667.8614,NA,1667.8617,1667.862,,6,0,19,1,1,2,0,1,0,Above,1,Homogeneous,41.70021499999999,1,Female,18
3,-38,4,2,7,-20,-58,-3,0,perc,perc,wav/perc_masker_57.wav,wav/target_19.wav,0.405,0,0,0,0,16,16,SC,1,1,3,1,0.7007,NA,1673.5937,1673.5948,NA,1673.5952,1673.5956,,6,1,20,2,1,3,0,0,1,Above,1,Homogeneous,41.70021499999999,1,Female,18
3,-38,3,3,7,-20,-58,-5,0,perc,perc,wav/perc_masker_55.wav,wav/target_17.wav,0.38,0,0,0,0,16,16,SC,1,1,2,1,1.2465,NA,1679.8603,1679.8612,NA,1679.8615,1679.8619,,6,2,21,1,1,2,0,1,0,Above,1,Homogeneous,41.70021499999999,1,Female,18
3,-38,3,1,8,-20,-58,-5,0,perc,perc,wav/perc_masker_55.wav,wav/target_17.wav,0.38,0,0,0,0,16,16,SC,1,1,3,1,0.9292,NA,1685.8099,1685.8107,NA,1685.8111,1685.8116,,7,0,22,2,1,3,0,0,1,Above,1,Homogeneous,41.70021499999999,1,Female,18
3,2,1,2,8,-20,-18,3,0,flat,flat,wav/flat_masker_63.wav,wav/target_65.wav,0.38,2,0,0,0,4,4,SC,1,1,2,1,0.678,NA,1691.5102,1691.511,NA,1691.5114,1691.5117,,7,1,23,1,1,2,0,1,0,Above,1,Homogeneous,41.70021499999999,1,Female,18
3,-38,4,3,8,-20,-58,8,0,perc,perc,wav/perc_masker_68.wav,wav/target_30.wav,0.405,0,0,0,0,16,16,SC,1,1,3,1,0.6674,NA,1697.2097,1697.2106,NA,1697.2109,1697.2114,,7,2,24,2,1,3,0,0,1,Above,1,Homogeneous,41.70021499999999,1,Female,18
3,-54,4,1,9,-20,-74,-8,-3,perc,perc,wav/perc_masker_55.wav,wav/target_1.wav,0.405,1,1,0,1,8,8,SC,0,1,1,0,0.5514,NA,1702.794,1702.7949,NA,1702.7951,1702.7955,,8,0,25,2,1,3,0,0,1,Above,1,Homogeneous,41.70021499999999,1,Female,18
3,-54,3,2,9,-20,-74,-5,0,perc,perc,wav/perc_masker_55.wav,wav/target_1.wav,0.38,0,0,0,0,16,16,SC,1,1,1,1,0.6133,NA,1708.4271,1708.4278,NA,1708.4281,1708.4285,,8,1,26,0,1,1,1,0,0,Above,1,Homogeneous,41.70021499999999,1,Female,18
3,-2,1,3,9,-20,-22,-9,0,flat,flat,wav/flat_masker_51.wav,wav/target_49.wav,0.38,2,0,0,0,4,4,SC,1,1,2,1,0.5336,NA,1713.9943,1713.9953,NA,1713.9955,1713.9959,,8,2,27,1,1,2,0,1,0,Above,1,Homogeneous,41.70021499999999,1,Female,18
3,-38,4,1,10,-20,-58,8,0,perc,perc,wav/perc_masker_68.wav,wav/target_30.wav,0.405,1,1,0,0,8,8,SC,1,1,2,1,0.7508,NA,1719.7774,1719.7784,NA,1719.7787,1719.7792,,9,0,28,1,1,2,0,1,0,Above,1,Homogeneous,41.70021499999999,1,Female,18
3,-54,3,2,10,-20,-74,-2,0,perc,perc,wav/perc_masker_58.wav,wav/target_4.wav,0.38,1,1,0,1,8,8,SC,0,1,1,0,0.4959,NA,1725.2941,1725.2951,NA,1725.2954,1725.2958,,9,1,29,1,1,2,0,1,0,Above,1,Homogeneous,41.70021499999999,1,Female,18
3,-2,1,3,10,-20,-22,-8,0,flat,flat,wav/flat_masker_52.wav,wav/target_50.wav,0.38,2,0,0,0,4,4,SC,1,1,2,1,0.5216,NA,1730.8434,1730.8443,NA,1730.8446,1730.8449,,9,2,30,1,1,2,0,1,0,Above,1,Homogeneous,41.70021499999999,1,Female,18
3,-38,4,1,11,-20,-58,1,0,perc,perc,wav/perc_masker_61.wav,wav/target_23.wav,0.405,2,2,0,1,4,4,SC,1,1,2,1,0.5172,NA,1736.3934,1736.3943,NA,1736.3946,1736.395,,10,0,31,1,1,2,0,1,0,Above,1,Homogeneous,41.70021499999999,1,Female,18
3,-38,3,2,11,-20,-58,1,0,perc,perc,wav/perc_masker_61.wav,wav/target_23.wav,0.38,1,1,0,0,8,8,SC,1,1,1,1,0.5678,NA,1741.9936,1741.9943,NA,1741.9947,1741.995,,10,1,32,0,1,1,1,0,0,Above,1,Homogeneous,41.70021499999999,1,Female,18
3,-6,1,3,11,-20,-26,1,0,flat,flat,wav/flat_masker_61.wav,wav/target_55.wav,0.38,2,0,0,0,4,4,SC,1,1,3,1,0.6207,NA,1747.6438,1747.6447,NA,1747.6451,1747.6455,,10,2,33,2,1,3,0,0,1,Above,1,Homogeneous,41.70021499999999,1,Female,18
3,-38,3,1,12,-20,-58,8,0,perc,perc,wav/perc_masker_68.wav,wav/target_30.wav,0.38,2,2,0,1,4,4,SC,1,1,2,1,0.5425,NA,1753.21,1753.2109,NA,1753.2111,1753.2114,,11,0,34,1,1,2,0,1,0,Above,1,Homogeneous,41.70021499999999,1,Female,18
3,-6,1,2,12,-20,-26,-6,0,flat,flat,wav/flat_masker_54.wav,wav/target_48.wav,0.38,2,0,0,0,4,4,SC,1,1,2,1,0.4046,NA,1758.6438,1758.6447,NA,1758.645,1758.6455,,11,1,35,1,1,2,0,1,0,Above,1,Homogeneous,41.70021499999999,1,Female,18
3,-46,4,3,12,-20,-66,8,0,perc,perc,wav/perc_masker_68.wav,wav/target_22.wav,0.405,2,2,0,0,4,4,SC,1,1,1,1,0.4943,NA,1764.1601,1764.1607,NA,1764.161,1764.1614,,11,2,36,0,1,1,1,0,0,Above,1,Homogeneous,41.70021499999999,1,Female,18
3,-46,3,1,13,-20,-66,3,0,perc,perc,wav/perc_masker_63.wav,wav/target_17.wav,0.38,2,2,0,0,4,4,SC,1,1,1,1,0.319,NA,1769.5109,1769.5119,NA,1769.5124,1769.5128,,12,0,37,0,1,1,1,0,0,Above,1,Homogeneous,41.70021499999999,1,Female,18
3,-10,1,2,13,-20,-30,-4,0,flat,flat,wav/flat_masker_56.wav,wav/target_46.wav,0.38,3,1,0,1,2,2,SC,0,1,1,0,1.5197,NA,1776.0606,1776.0615,NA,1776.0619,1776.0623,,12,1,38,2,1,3,0,0,1,Above,1,Homogeneous,41.70021499999999,1,Female,18
3,-46,4,3,13,-20,-66,-9,0,perc,perc,wav/perc_masker_51.wav,wav/target_5.wav,0.405,3,3,0,1,2,2,SC,0,1,2,0,0.5948,NA,1781.6766,1781.6773,NA,1781.6776,1781.6779,,12,2,39,0,1,1,1,0,0,Above,1,Homogeneous,41.70021499999999,1,Female,18
3,-6,1,1,14,-20,-26,9,0,flat,flat,wav/flat_masker_69.wav,wav/target_63.wav,0.38,3,1,0,0,2,2,SC,1,1,3,1,1.3385,NA,1788.0443,1788.0455,NA,1788.0458,1788.0462,,13,0,40,2,1,3,0,0,1,Above,1,Homogeneous,41.70021499999999,1,Female,18
3,-42,4,2,14,-20,-62,3,0,perc,perc,wav/perc_masker_63.wav,wav/target_21.wav,0.405,3,3,0,0,2,2,SC,1,1,1,1,0.7119,NA,1793.777,1793.7777,NA,1793.778,1793.7784,,13,1,41,0,1,1,1,0,0,Above,1,Homogeneous,41.70021499999999,1,Female,18
3,-46,3,3,14,-20,-66,5,0,perc,perc,wav/perc_masker_65.wav,wav/target_19.wav,0.38,2,0,0,0,4,4,SC,1,1,1,1,0.5783,NA,1799.3772,1799.3781,NA,1799.3784,1799.3788,,13,2,42,0,1,1,1,0,0,Above,1,Homogeneous,41.70021499999999,1,Female,18
3,-42,4,1,15,-20,-62,-1,0,perc,perc,wav/perc_masker_59.wav,wav/target_17.wav,0.405,4,4,1,1,2,2,SC,1,1,3,1,0.5504,NA,1804.9608,1804.9618,NA,1804.9621,1804.9627,,14,0,43,2,1,3,0,0,1,Above,1,Homogeneous,41.70021499999999,1,Female,18
3,-50,3,2,15,-20,-70,7,0,perc,perc,wav/perc_masker_67.wav,wav/target_17.wav,0.38,3,1,0,1,2,2,SC,0,1,3,0,0.5274,NA,1810.5104,1810.5113,NA,1810.5116,1810.512,,14,1,44,0,1,1,1,0,0,Above,1,Homogeneous,41.70021499999999,1,Female,18
3,-6,1,3,15,-20,-26,8,0,flat,flat,wav/flat_masker_68.wav,wav/target_62.wav,0.38,3,0,0,0,2,2,SC,0,1,2,0,0.52,NA,1816.0608,1816.0617,NA,1816.0621,1816.0625,,14,2,45,2,1,3,0,0,1,Above,1,Homogeneous,41.70021499999999,1,Female,18
3,-44,4,1,16,-20,-64,-6,0,perc,perc,wav/perc_masker_54.wav,wav/target_10.wav,0.405,4,4,1,0,2,2,SC,1,1,2,1,0.4773,NA,1821.5601,1821.561,NA,1821.5613,1821.5617,,15,0,46,1,1,2,0,1,0,Above,1,Homogeneous,41.70021499999999,1,Female,18
3,-46,3,2,16,-20,-66,1,0,perc,perc,wav/perc_masker_61.wav,wav/target_15.wav,0.38,3,0,0,0,2,2,SC,0,1,2,0,0.4786,NA,1827.0608,1827.0616,NA,1827.0619,1827.0624,,15,1,47,0,1,1,1,0,0,Above,1,Homogeneous,41.70021499999999,1,Female,18
3,-4,1,3,16,-20,-24,9,0,flat,flat,wav/flat_masker_69.wav,wav/target_65.wav,0.38,3,0,0,0,2,2,SC,0,1,1,0,0.5381,NA,1832.6273,1832.6281,NA,1832.6284,1832.6287,,15,2,48,1,1,2,0,1,0,Above,1,Homogeneous,41.70021499999999,1,Female,18
3,-2,1,1,17,-20,-22,-5,0,flat,flat,wav/flat_masker_55.wav,wav/target_53.wav,0.38,3,0,0,0,2,2,SC,1,1,1,1,0.5449,NA,1838.1936,1838.1942,NA,1838.1944,1838.1947,,16,0,49,0,1,1,1,0,0,Above,1,Homogeneous,41.70021499999999,1,Female,18
3,-44,4,2,17,-20,-64,9,0,perc,perc,wav/perc_masker_69.wav,wav/target_25.wav,0.405,4,0,0,0,2,2,SC,1,1,2,1,0.5008,NA,1843.7276,1843.7285,NA,1843.7289,1843.7294,,16,1,50,1,1,2,0,1,0,Above,1,Homogeneous,41.70021499999999,1,Female,18
3,-44,3,3,17,-20,-64,4,0,perc,perc,wav/perc_masker_64.wav,wav/target_20.wav,0.38,3,0,0,0,2,2,SC,1,1,2,1,0.6885,NA,1849.4443,1849.4454,NA,1849.4458,1849.4462,,16,2,51,1,1,2,0,1,0,Above,1,Homogeneous,41.70021499999999,1,Female,18
3,-46,4,1,18,-20,-66,5,0,perc,perc,wav/perc_masker_65.wav,wav/target_19.wav,0.405,5,1,1,1,2,2,SC,0,1,2,0,0.7002,NA,1855.1778,1855.1788,NA,1855.1792,1855.1796,,17,0,52,0,1,1,1,0,0,Above,1,Homogeneous,41.70021499999999,1,Female,18
3,-44,3,2,18,-20,-64,0,0,perc,perc,wav/perc_masker_60.wav,wav/target_16.wav,0.38,4,1,1,1,2,2,SC,1,1,1,1,0.4533,NA,1860.6601,1860.6609,NA,1860.6611,1860.6615,,17,1,53,0,1,1,1,0,0,Above,1,Homogeneous,41.70021499999999,1,Female,18
3,-2,1,3,18,-20,-22,-3,0,flat,flat,wav/flat_masker_57.wav,wav/target_55.wav,0.38,4,1,1,1,2,2,SC,1,1,1,1,0.7259,NA,1866.41,1866.4106,NA,1866.4108,1866.4111,,17,2,54,0,1,1,1,0,0,Above,1,Homogeneous,41.70021499999999,1,Female,18
3,-44,4,1,19,-20,-64,-1,0,perc,perc,wav/perc_masker_59.wav,wav/target_15.wav,0.405,5,1,1,0,2,2,SC,1,1,2,1,0.4529,NA,1871.8944,1871.8953,NA,1871.8955,1871.896,,18,0,55,1,1,2,0,1,0,Above,1,Homogeneous,41.70021499999999,1,Female,18
3,-46,3,2,19,-20,-66,0,0,perc,perc,wav/perc_masker_60.wav,wav/target_14.wav,0.38,5,2,2,1,2,2,SC,0,1,2,0,0.4612,NA,1877.3776,1877.3784,NA,1877.3787,1877.379,,18,1,56,0,1,1,1,0,0,Above,1,Homogeneous,41.70021499999999,1,Female,18
3,-4,1,3,19,-20,-24,-10,0,flat,flat,wav/flat_masker_50.wav,wav/target_46.wav,0.38,4,1,1,0,2,2,SC,1,1,2,1,0.3955,NA,1882.794,1882.7952,NA,1882.7956,1882.7961,,18,2,57,1,1,2,0,1,0,Above,1,Homogeneous,41.70021499999999,1,Female,18
3,-44,3,1,20,-20,-64,1,0,perc,perc,wav/perc_masker_61.wav,wav/target_17.wav,0.38,5,2,2,0,2,2,SC,1,1,2,1,0.4293,NA,1888.2441,1888.2449,NA,1888.2451,1888.2455,,19,0,58,1,1,2,0,1,0,Above,1,Homogeneous,41.70021499999999,1,Female,18
3,-4,1,2,20,-20,-24,-5,0,flat,flat,wav/flat_masker_55.wav,wav/target_51.wav,0.38,4,0,0,0,2,2,SC,1,1,3,1,0.5283,NA,1893.7944,1893.7952,NA,1893.7956,1893.7962,,19,1,59,2,1,3,0,0,1,Above,1,Homogeneous,41.70021499999999,1,Female,18
3,-44,4,3,20,-20,-64,-5,0,perc,perc,wav/perc_masker_55.wav,wav/target_11.wav,0.405,6,2,2,1,2,2,SC,1,1,1,1,0.4785,NA,1899.2945,1899.2954,NA,1899.2958,1899.2962,,19,2,60,0,1,1,1,0,0,Above,1,Homogeneous,41.70021499999999,1,Female,18
3,-44,3,1,21,-20,-64,0,0,perc,perc,wav/perc_masker_60.wav,wav/target_16.wav,0.38,6,3,3,1,2,2,SC,1,1,1,1,0.6847,NA,1905.0105,1905.0116,NA,1905.0121,1905.0128,,20,0,61,0,1,1,1,0,0,Above,1,Homogeneous,41.70021499999999,1,Female,18
3,-6,1,2,21,-20,-26,9,0,flat,flat,wav/flat_masker_69.wav,wav/target_63.wav,0.38,4,0,0,0,2,2,SC,1,1,3,1,0.4538,NA,1910.4949,1910.4959,NA,1910.4961,1910.4964,,20,1,62,2,1,3,0,0,1,Above,1,Homogeneous,41.70021499999999,1,Female,18
3,-46,4,3,21,-20,-66,2,0,perc,perc,wav/perc_masker_62.wav,wav/target_16.wav,0.405,6,2,2,0,2,2,SC,1,1,2,1,0.5292,NA,1916.0443,1916.045,NA,1916.0452,1916.0456,,20,2,63,1,1,2,0,1,0,Above,1,Homogeneous,41.70021499999999,1,Female,18
3,-46,3,1,22,-20,-66,-10,0,perc,perc,wav/perc_masker_50.wav,wav/target_4.wav,0.38,7,4,4,1,2,2,SC,0,1,2,0,0.4281,NA,1921.4942,1921.4949,NA,1921.4952,1921.4955,,21,0,64,2,1,3,0,0,1,Above,1,Homogeneous,41.70021499999999,1,Female,18
3,-6,1,2,22,-20,-26,2,0,flat,flat,wav/flat_masker_62.wav,wav/target_56.wav,0.38,5,1,1,1,2,2,SC,0,1,3,0,0.8783,NA,1927.3947,1927.3958,NA,1927.3961,1927.3965,,21,1,65,0,1,1,1,0,0,Above,1,Homogeneous,41.70021499999999,1,Female,18
3,-46,4,3,22,-20,-66,-2,0,perc,perc,wav/perc_masker_58.wav,wav/target_12.wav,0.405,6,0,0,0,2,2,SC,1,1,2,1,0.7672,NA,1933.1948,1933.1958,NA,1933.1961,1933.1965,,21,2,66,1,1,2,0,1,0,Above,1,Homogeneous,41.70021499999999,1,Female,18
3,-48,4,1,23,-20,-68,-10,0,perc,perc,wav/perc_masker_50.wav,wav/target_2.wav,0.405,7,1,1,1,2,2,SC,0,1,3,0,0.7672,NA,1938.9949,1938.9958,NA,1938.9961,1938.9966,,22,0,67,0,1,1,1,0,0,Above,1,Homogeneous,41.70021499999999,1,Female,18
3,-44,3,2,23,-20,-64,3,0,perc,perc,wav/perc_masker_63.wav,wav/target_19.wav,0.38,7,4,4,0,2,2,SC,1,1,2,1,0.4006,NA,1944.428,1944.4288,NA,1944.4291,1944.4294,,22,1,68,1,1,2,0,1,0,Above,1,Homogeneous,41.70021499999999,1,Female,18
3,-4,1,3,23,-20,-24,-3,0,flat,flat,wav/flat_masker_57.wav,wav/target_53.wav,0.38,5,1,1,0,2,2,SC,1,1,3,1,0.4283,NA,1949.8779,1949.8787,NA,1949.879,1949.8794,,22,2,69,2,1,3,0,0,1,Above,1,Homogeneous,41.70021499999999,1,Female,18
3,-4,1,1,24,-20,-24,-6,0,flat,flat,wav/flat_masker_54.wav,wav/target_50.wav,0.38,5,0,0,0,2,2,SC,0,1,1,0,7.5006,NA,1962.4105,1962.4115,NA,1962.4119,1962.4124,,23,0,70,2,1,3,0,0,1,Above,1,Homogeneous,41.70021499999999,1,Female,18
3,-46,4,2,24,-20,-66,-9,0,perc,perc,wav/perc_masker_51.wav,wav/target_5.wav,0.405,7,1,1,0,2,2,SC,1,1,2,1,0.6044,NA,1968.0447,1968.0456,NA,1968.046,1968.0465,,23,1,71,1,1,2,0,1,0,Above,1,Homogeneous,41.70021499999999,1,Female,18
3,-44,3,3,24,-20,-64,-8,0,perc,perc,wav/perc_masker_52.wav,wav/target_8.wav,0.38,7,0,0,0,2,2,SC,0,1,2,0,0.7803,NA,1973.845,1973.8459,NA,1973.8462,1973.8466,,23,2,72,0,1,1,1,0,0,Above,1,Homogeneous,41.70021499999999,1,Female,18
3,-2,1,1,25,-20,-22,-8,0,flat,flat,wav/flat_masker_52.wav,wav/target_50.wav,0.38,5,0,0,0,2,2,SC,1,1,2,1,0.5172,NA,1979.3948,1979.3957,NA,1979.396,1979.3964,,24,0,73,1,1,2,0,1,0,Above,1,Homogeneous,41.70021499999999,1,Female,18
3,-46,4,2,25,-20,-66,7,0,perc,perc,wav/perc_masker_67.wav,wav/target_21.wav,0.405,8,2,2,1,2,2,SC,1,1,3,1,0.5336,NA,1984.9615,1984.9624,NA,1984.9627,1984.963,,24,1,74,2,1,3,0,0,1,Above,1,Homogeneous,41.70021499999999,1,Female,18
3,-2,1,1,26,-20,-22,1,0,flat,flat,wav/flat_masker_61.wav,wav/target_59.wav,0.38,6,1,1,1,2,2,SC,1,1,2,1,1.079,NA,1991.0614,1991.0623,NA,1991.0626,1991.0629,,24,2,75,1,1,2,0,1,0,Above,1,Homogeneous,41.70021499999999,1,Female,18
3,-42,3,2,25,-20,-62,-6,0,perc,perc,wav/perc_masker_54.wav,wav/target_12.wav,0.38,7,0,0,0,2,2,SC,1,1,2,1,0.8351,NA,1996.9286,1996.9299,NA,1996.9303,1996.9308,,25,0,76,1,1,2,0,1,0,Above,1,Homogeneous,41.70021499999999,1,Female,18
3,-4,1,1,27,-20,-24,-5,0,flat,flat,wav/flat_masker_55.wav,wav/target_51.wav,0.38,6,1,1,0,2,2,SC,1,1,3,1,0.6171,NA,2002.5782,2002.5792,NA,2002.5794,2002.5798,,25,1,77,2,1,3,0,0,1,Above,1,Homogeneous,41.70021499999999,1,Female,18
3,-42,3,2,26,-20,-62,-8,0,perc,perc,wav/perc_masker_52.wav,wav/target_10.wav,0.38,8,1,1,1,2,2,SC,1,1,2,1,0.5836,NA,2008.195,2008.1958,NA,2008.1961,2008.1965,,25,2,78,1,1,2,0,1,0,Above,1,Homogeneous,41.70021499999999,1,Female,18
3,-4,1,1,28,-20,-24,1,0,flat,flat,wav/flat_masker_61.wav,wav/target_57.wav,0.38,6,0,0,0,2,2,SC,1,1,1,1,0.6,NA,2013.8285,2013.8297,NA,2013.83,2013.8305,,26,0,79,0,1,1,1,0,0,Above,1,Homogeneous,41.70021499999999,1,Female,18
